Sentences,Question,word5,word4,word6,word1,word3,Ans,word2,lenth,Type,ID,practicetrials.thisRepN,practicetrials.thisTrialN,practicetrials.thisN,practicetrials.thisIndex,key_resp_12.keys,key_resp_12.rt,Atests1.keys,Atests1.rt,Atests2.keys,Atests2.rt,Atests3.keys,Atests3.rt,Atests4.keys,Atests4.rt,Atests5.keys,Atests5.rt,Atests6.keys,Atests6.rt,key_resp_8.keys,key_resp_8.corr,key_resp_8.rt,expName,participant,version,Grade,Gender,frameRate,session,date,
敵人搜查掩護戰士的村民,村民沒掩護戰士？,的,戰士,村民,敵人,掩護,j,搜查,11,1,40,0,0,0,15,space,0.46737237004,space,0.783843111058,space,0.917253338353,space,0.800495705509,space,2.15060044787,space,0.950101031871,space,1.51702818274,j,1,2.21706951127,SPR,16,B,,f,59.9814611812,001,2017_01_09_1604,
名嘴毀謗徐總賞識的詩人,名嘴稱讚詩人？,的,賞識,詩人,名嘴,徐總,j,毀謗,11,2,8,0,1,1,7,space,0.484062464107,space,1.08379230895,space,0.850371779125,space,0.850369410735,space,0.867116346322,space,0.700449877018,space,1.61705822191,j,1,1.06702839984,SPR,16,B,,f,59.9814611812,001,2017_01_09_1604,
小劉愛慕領隊欽佩的組長,小劉討厭組長？,的,欽佩,組長,小劉,領隊,j,愛慕,11,2,6,0,2,2,5,space,0.567150964394,space,1.28372015178,space,0.9837145071,space,0.733665856278,space,0.83363392239,space,1.15043189695,space,1.20047494255,j,1,1.08367783642,SPR,16,B,,f,59.9814611812,001,2017_01_09_1604,
證人揭發指使搶匪的殺手,證人揭發殺手？,的,搶匪,殺手,證人,指使,f,揭發,11,1,35,0,3,3,10,space,0.750378055382,space,0.800474784664,space,1.26711926734,space,1.21737424502,space,1.40033647027,space,0.517140681601,space,1.03361031737,f,1,2.66715731959,SPR,16,B,,f,59.9814611812,001,2017_01_09_1604,
助教嫌棄愛慕局長的學生,助教嫌棄學生？,的,局長,學生,助教,愛慕,f,嫌棄,11,1,33,0,4,4,8,space,0.717033787951,space,1.16725106864,space,0.933741329194,space,1.36712878041,None,,space,2.31719823365,space,1.48370088882,f,1,2.21717806281,SPR,16,B,,f,59.9814611812,001,2017_01_09_1604,
小李暗戀招待船長的賓客,賓客招待過船長？,的,船長,賓客,小李,招待,f,暗戀,11,1,37,0,5,5,12,space,0.5171694971,space,0.700389877631,space,0.817165668195,space,0.667000215923,space,0.567064123163,space,0.683689520512,space,0.850193754617,f,1,2.01712114233,SPR,16,B,,f,59.9814611812,001,2017_01_09_1604,
村民援助小潘舉薦的水手,村民援助水手？,的,舉薦,水手,村民,小潘,f,援助,11,2,7,0,6,6,6,space,0.567249647604,space,1.0839683598,space,1.35035539771,space,1.21733161388,space,1.70046092954,space,0.967129806711,space,0.617010064503,f,1,1.0005324946,SPR,16,B,,f,59.9814611812,001,2017_01_09_1604,
小紅取笑小張崇拜的作家,小紅取笑作家？,的,崇拜,作家,小紅,小張,f,取笑,11,2,1,0,7,7,0,space,0.683805571971,space,0.833721158357,space,0.733594014906,space,0.683520180122,space,0.767022360436,space,0.533724987261,space,1.10042911408,f,1,0.717246154221,SPR,16,B,,f,59.9814611812,001,2017_01_09_1604,
善待動物們是對生命的尊重,應該善待動物?,的,生命,尊重,善待,是對,f,動物們,12,3,35,0,8,8,18,space,0.483817335007,space,0.650272227511,space,0.600367338382,space,0.617047958862,space,0.717027077488,space,0.61698874893,space,0.700341720221,f,1,0.717180628562,SPR,16,B,,f,59.9814611812,001,2017_01_09_1604,
聽說吃黑巧克力可以提高智商,吃巧克力沒有益處?,提高,可以,智商,聽說,黑巧克力,j,吃,13,3,40,0,9,9,23,space,0.533806302221,space,0.550387055293,space,0.583744743642,space,0.517185681143,space,0.533708013747,space,0.767136832954,space,0.617015590768,j,1,0.783619692273,SPR,16,B,,f,59.9814611812,001,2017_01_09_1604,
爺爺一句話就把大家逗開心了,爺爺逗大家開心?,逗,大家,開心了,爺爺,就把,f,一句話,12,3,33,0,10,10,16,space,0.450474251767,space,0.55033495056,space,0.617120589704,space,0.567218068973,space,0.533670119396,space,0.533782223523,space,0.550448238879,f,1,0.817101326735,SPR,16,B,,f,59.9814611812,001,2017_01_09_1604,
外婆檢舉救治嬸嬸的鄰居,鄰居沒救嬸嬸？,的,嬸嬸,鄰居,外婆,救治,j,檢舉,11,1,38,0,11,11,13,space,0.767073675699,space,0.70078500521,space,0.683890834262,space,0.766816309886,space,0.667007321106,space,0.633647659095,space,0.850288490503,j,1,1.11705249829,SPR,16,B,,f,59.9814611812,001,2017_01_09_1604,
村民擔心襲擊刺客的鐵匠,鐵匠襲擊了刺客？,的,刺客,鐵匠,村民,襲擊,f,擔心,11,1,39,0,12,12,14,space,0.58334053721,space,0.583693033637,space,0.633690684976,space,0.650385910565,space,0.633753052767,space,0.816771724814,space,0.667099293867,f,1,1.25036877916,SPR,16,B,,f,59.9814611812,001,2017_01_09_1604,
留學的生活能夠磨礪人的意志,留學能鍛鍊人?,人的,磨礪,意志,留學的,能夠,f,生活,13,3,37,0,13,13,20,space,0.617082695346,space,0.7500405588,space,0.916748475051,space,0.867030689296,space,0.750376871183,space,0.583592771494,space,0.600333786089,f,1,0.93384514394,SPR,16,B,,f,59.9814611812,001,2017_01_09_1604,
校長相信房東厭惡的小孩,小孩相信校長？,的,厭惡,小孩,校長,房東,j,相信,11,2,2,0,14,14,1,space,0.683792151052,space,0.717057471913,space,0.7170452352,space,1.4171390632,space,0.6837830722,space,0.83386681477,space,0.750333845303,j,1,1.71704010367,SPR,16,B,,f,59.9814611812,001,2017_01_09_1604,
粉絲大罵小周羞辱的導演,粉絲大罵導演？,的,羞辱,導演,粉絲,小周,f,大罵,11,2,5,0,15,15,4,space,0.717129708028,space,0.783661533955,space,0.800626362077,space,0.633623975125,space,0.750363055529,space,0.933791855008,space,0.567158859049,f,1,1.41697485434,SPR,16,B,,f,59.9814611812,001,2017_01_09_1604,
王董賞識工人表揚的廠長,王董賞識廠長？,的,表揚,廠長,王董,工人,f,賞識,11,2,3,0,16,16,2,space,0.450464383459,space,0.567080307213,space,0.733840328197,space,0.650413936593,space,0.600385496095,space,0.967191385032,space,0.667115872639,f,1,1.45045214673,SPR,16,B,,f,59.9814611812,001,2017_01_09_1604,
老師調查弟弟傷害的同學,同學調查老師？,的,傷害,同學,老師,弟弟,j,調查,11,2,4,0,17,17,3,space,0.417071563883,space,0.567011623702,space,0.866935558675,space,0.633861604299,space,0.650535119581,space,0.650552882558,space,0.650601039961,j,1,0.967122306793,SPR,16,B,,f,59.9814611812,001,2017_01_09_1604,
商人質疑賄賂小陳的企劃員,商人質疑小陳？,的,小陳,企劃員,商人,賄賂,j,質疑,12,1,36,0,18,18,11,space,0.567202279657,space,1.05039356838,space,0.833787868207,space,1.01715864195,space,0.833643790713,space,0.483911281422,space,0.967279410455,j,1,1.15056018512,SPR,16,B,,f,59.9814611812,001,2017_01_09_1604,
手機是個既方便又重要的發明,手機讓人不方便?,的,又重要,發明,手機,既方便,j,是個,13,3,36,0,19,19,19,space,0.467201845458,space,0.567120964697,space,0.633752263304,space,0.450281622143,space,0.550385871087,space,0.950602737321,space,0.767487355719,j,1,0.683689125784,SPR,16,B,,f,59.9814611812,001,2017_01_09_1604,
阿姨親手製作了一個生日蛋糕,阿姨沒做蛋糕?,生日,一個,蛋糕,阿姨,製作了,j,親手,13,3,38,0,20,20,21,space,0.517044366788,space,0.850535593258,space,0.884042095888,space,1.03379307868,space,0.650507488281,space,0.733799275979,space,0.68374123051,j,1,0.567244516074,SPR,16,B,,f,59.9814611812,001,2017_01_09_1604,
每年都會頒布新的法規制度,年年都沒新制度?,法規,的,制度,每年,新,j,都會頒布,12,3,34,0,21,21,17,space,0.817132115895,space,0.933707382173,space,0.917285706448,space,0.617153352527,space,0.983888584284,space,0.750448317827,space,0.617093353132,j,1,1.76716328006,SPR,16,B,,f,59.9814611812,001,2017_01_09_1604,
和朋友們一起喝下午茶很開心,喝下午茶很開心?,下午茶,喝,很開心,和,一起,f,朋友們,13,3,39,0,22,22,22,space,0.767243410824,space,0.7837317964,space,0.566968203086,space,0.583710007144,space,1.80051978421,space,1.06703076824,space,0.600451811217,f,1,0.950336687376,SPR,16,B,,f,59.9814611812,001,2017_01_09_1604,
強盜綁架誣陷主人的管家,強盜綁架主人？,的,主人,管家,強盜,誣陷,j,綁架,11,1,34,0,23,23,9,space,0.667076004625,space,0.900384430315,space,0.667030610348,space,0.783754296179,space,0.733853749116,space,0.783802453574,space,0.650306174524,j,1,0.733705724291,SPR,16,B,,f,59.9814611812,001,2017_01_09_1604,
桌子上擺滿了一大堆舊的文件,桌上沒有文件?,的,舊,文件,桌子上,一大堆,j,擺滿了,12,3,52,0,0,0,19,space,0.41710985297,space,0.65039143683,space,0.633830025668,space,0.567003729047,space,0.6005706258,space,0.617247298942,space,0.817229614906,j,1,0.583634218441,SPR,16,B,,f,59.9814611812,001,2017_01_09_1604,
贊助商支持拉攏貴族的青年,青年排斥貴族？,的,貴族,青年,贊助商,拉攏,j,支持,12,1,54,0,1,1,13,space,0.600488126627,space,1.13385667014,space,1.11698026217,space,0.983661218168,space,1.21698622264,space,0.750491738443,space,0.800538731382,j,1,1.06703787344,SPR,16,B,,f,59.9814611812,001,2017_01_09_1604,
主任指責上司嘲笑的會計,主任指責會計？,的,嘲笑,會計,主任,上司,f,指責,11,2,23,0,2,2,6,space,0.667199556003,space,0.70044869282,space,0.650428936446,space,1.08375717772,space,1.4836933889,space,0.867158188004,space,0.800427416718,f,1,1.916950973,SPR,16,B,,f,59.9814611812,001,2017_01_09_1604,
音樂可以讓人身心得到放鬆,音樂會讓人放鬆?,得到,身心,放鬆,音樂,讓人,f,可以,12,3,51,0,3,3,18,space,0.567218068973,space,0.750280556371,space,0.900425087799,space,1.03389926181,space,0.917419915611,space,0.733691119189,space,0.567173858894,f,1,0.667245345008,SPR,16,B,,f,59.9814611812,001,2017_01_09_1604,
每個人的相處方式都不一樣,相處方式都一樣?,都,方式,不一樣,每個人,相處,j,的,12,3,50,0,4,4,17,space,0.517216470311,space,0.800587283527,space,0.767173543107,space,0.667168372107,space,1.03365255378,space,0.650423015446,space,0.500419008917,j,1,0.716724712132,SPR,16,B,,f,59.9814611812,001,2017_01_09_1604,
治療師開導照顧小崔的飛行員,治療師開導飛行員？,的,小崔,飛行員,治療師,照顧,f,開導,13,1,49,0,5,5,8,space,0.501553471106,space,0.567072017824,space,0.667519684343,space,0.584622629482,space,0.58394132059,space,0.53362354092,space,0.500316378377,f,1,1.28368423109,SPR,16,B,,f,59.9814611812,001,2017_01_09_1604,
小張欽佩袒護隊長的消防員,校長欽佩隊長？,的,隊長,消防員,小張,袒護,j,欽佩,12,1,52,0,6,6,11,space,0.433659816867,space,0.583833163801,space,0.804952239305,space,0.900469297878,space,0.633786210325,space,0.717084708485,space,1.03394426135,j,1,2.78467836576,SPR,16,B,,f,59.9814611812,001,2017_01_09_1604,
每週都有寫不完的作業和報告,每週都有作業?,作業和,的,報告,每週,寫不完,f,都有,13,3,53,0,7,7,20,space,0.467070794155,space,0.483589968891,space,0.466893953839,space,0.433737184503,space,0.533754197495,space,0.450497146281,space,0.566735310706,f,1,1.06713063565,SPR,16,B,,f,59.9814611812,001,2017_01_09_1604,
親近大自然的最好方式是旅遊,旅遊能親近自然?,是,最好方式,旅遊,親近,的,f,大自然,13,3,55,0,8,8,22,space,0.45034122681,space,0.600337338685,space,0.650503935685,space,0.950249451416,space,0.683726625408,space,0.883723546482,space,0.800418732601,f,1,1.00015039321,SPR,16,B,,f,59.9814611812,001,2017_01_09_1604,
媽媽討厭忽視小白的企業家,企業家忽視小白？,的,小白,企業家,媽媽,忽視,f,討厭,12,1,55,0,9,9,14,space,0.45044188368,space,0.500382693492,space,0.517049498318,space,0.616972170152,space,0.617098879397,space,0.583741585775,space,1.80043649558,f,1,1.15029887197,SPR,16,B,,f,59.9814611812,001,2017_01_09_1604,
外婆批評農夫辱罵的木匠,外婆批評木匠？,的,辱罵,木匠,外婆,農夫,f,批評,11,2,19,0,10,10,2,space,0.467143819733,space,1.26712518834,space,0.450835037591,space,0.51733883749,space,0.717059050847,space,0.783828111213,space,0.783802453581,j,0,1.38365979713,SPR,16,B,,f,59.9814611812,001,2017_01_09_1604,
博物館裡有很多珍貴的收藏品,有很多收藏品?,的,珍貴,收藏品,博物館裡,很多,j,有,13,3,56,0,11,11,23,space,0.467071583618,space,1.01697469644,space,1.00054670499,space,0.716815500688,space,0.867283713051,space,0.783686402123,space,1.00100538455,f,0,0.550362581853,SPR,16,B,,f,59.9814611812,001,2017_01_09_1604,
老闆責罵雇主同情的技工,技工責罵老闆？,的,同情,技工,老闆,雇主,j,責罵,11,2,18,0,12,12,1,space,0.467239739803,space,0.550224030623,space,1.13363285662,space,1.16714330658,space,1.23384407816,space,0.433766000002,space,0.551833356425,j,1,1.10037385147,SPR,16,B,,f,59.9814611812,001,2017_01_09_1604,
妹妹迷戀表哥結識的中醫師,中醫師迷戀妹妹？,的,結識,中醫師,妹妹,表哥,j,迷戀,12,2,20,0,13,13,3,space,0.483723388592,space,0.633745947576,space,1.40055752067,space,0.833693921784,space,0.867086346625,space,1.11697157805,space,0.933932774627,j,1,1.31722547021,SPR,16,B,,f,59.9814611812,001,2017_01_09_1604,
阿姨看見驅趕交警的行政人員,行政人員驅趕交警？,的,交警,行政人員,阿姨,驅趕,f,看見,13,1,53,0,14,14,12,space,0.533743539709,space,0.750468054466,space,0.817042116803,space,0.833757473774,space,1.06707260993,space,0.667097714933,space,0.517056208773,f,1,3.03365650112,SPR,16,B,,f,59.9814611812,001,2017_01_09_1604,
鄰居告發表弟砍傷的疑犯,鄰居告發疑犯？,的,砍傷,疑犯,鄰居,表弟,f,告發,11,2,21,0,15,15,4,space,0.433689816564,space,0.45033530581,space,0.483827598058,space,0.583746322569,space,0.599651293007,space,0.517056208773,space,0.550434423232,f,1,1.03397031372,SPR,16,B,,f,59.9814611812,001,2017_01_09_1604,
青年佩服督促小謝的技術員,青年佩服小謝？,的,小謝,技術員,青年,督促,j,佩服,12,1,50,0,16,16,9,space,0.500405587998,space,0.583511456527,space,0.616965854424,space,0.616982038468,space,0.667136398748,space,0.667201134936,space,0.917037814223,j,1,1.83401049753,SPR,16,B,,f,59.9814611812,001,2017_01_09_1604,
偵探跟蹤老婆迷戀的編輯,偵探跟蹤編輯？,的,迷戀,編輯,偵探,老婆,f,跟蹤,11,2,17,0,17,17,0,space,0.583821716544,space,0.416972485938,space,0.683734520055,space,0.600354706934,space,0.516625160511,space,0.500452166474,space,0.700430929843,f,1,1.38370558614,SPR,16,B,,f,59.9814611812,001,2017_01_09_1604,
刑警緝拿輕視政府的逃亡者,逃亡者重視政府？,的,政府,逃亡者,刑警,輕視,j,緝拿,12,1,56,0,18,18,15,space,0.433785341913,space,0.483706415078,space,0.616793356174,space,0.767231568832,space,0.633809499559,space,0.583716322879,space,0.533916827422,j,1,1.00037894353,SPR,16,B,,f,59.9814611812,001,2017_01_09_1604,
同伴欺負小郭取笑的廚師,同伴關心廚師？,的,取笑,廚師,同伴,小郭,j,欺負,11,2,22,0,19,19,5,space,0.483749046223,space,0.516956341366,space,0.966995202813,space,0.617129273822,space,0.617159668254,space,0.717006551378,space,0.933740934466,j,1,0.850432962718,SPR,16,B,,f,59.9814611812,001,2017_01_09_1604,
校園門口的那棵樹長滿了新葉,樹長滿了新葉?,長滿了,樹,新葉,校園門口,那棵,f,的,13,3,49,0,20,20,16,space,0.433818894198,space,0.800237550226,space,0.517144234196,space,0.400411469513,space,0.433776263053,space,0.433704816409,space,0.517131997483,f,1,0.600652730231,SPR,16,B,,f,59.9814611812,001,2017_01_09_1604,
週六有場精彩的戲劇要公演了,週六沒有戲劇?,戲劇,的,要公演了,週六,精彩,j,有場,13,3,54,0,21,21,21,space,0.383777032788,space,0.483803124625,space,0.60044036396,space,0.550314819178,space,0.617135194814,space,0.617139931608,space,0.666759034153,j,1,0.917244259494,SPR,16,B,,f,59.9814611812,001,2017_01_09_1604,
小王關注資助航海家的演員,小王關注演員？,的,航海家,演員,小王,資助,f,關注,12,1,51,0,22,22,10,space,0.433748237025,space,0.633511081534,space,0.733759407965,space,1.08403704331,space,1.08373388849,space,0.883752756716,space,0.58362395539,j,0,1.66705745218,SPR,16,B,,f,59.9814611812,001,2017_01_09_1604,
科學家協助表姐熟識的院士,科學家排斥院士？,的,熟識,院士,科學家 ,表姐,j,協助,12,2,24,0,23,23,7,space,0.483764046076,space,0.533893143445,space,0.717377205518,space,0.650374858044,space,0.667086267676,space,0.517017524959,space,0.600411943189,j,1,2.01690009193,SPR,16,B,,f,59.9814611812,001,2017_01_09_1604,
律師帮助上尉惹怒的服務員,律師無視服務員？,的,惹怒,服務員,律師,上尉,j,幫助,12,2,30,0,0,0,5,space,0.500731637323,space,0.467130398814,space,0.750385160572,space,1.80042978512,space,0.950386028984,space,0.533848933374,space,0.483825229661,j,1,1.26729966025,SPR,16,B,,f,59.9814611812,001,2017_01_09_1604,
上司懲罰責罵小明的管理員,上司懲罰管理員？,的,小明,管理員,上司,責罵,f,懲罰,12,1,59,0,1,1,10,space,0.367112991094,space,0.483944833715,space,0.500415456321,space,0.700438824497,space,0.533805118022,space,0.500387825014,space,0.917098997808,f,1,1.28367317858,SPR,16,B,,f,59.9814611812,001,2017_01_09_1604,
朋友們推薦了許多好聽的歌曲,朋友推薦了歌曲?,的,好聽,歌曲,朋友們,許多,f,推薦了,13,3,57,0,2,2,16,space,0.434147706663,space,0.483556416599,space,0.4171643261,space,0.417139457932,space,0.433673237785,space,0.450463593988,space,0.483687467902,f,1,1.06701576839,SPR,16,B,,f,59.9814611812,001,2017_01_09_1604,
熱鬧的夜市有很多美味的食物,夜市很多美食?,的,美味,食物,熱鬧的,有很多,f,夜市,13,3,61,0,3,3,20,space,0.367097991249,space,0.433687448167,space,0.433702842747,space,0.483747467297,space,0.600418653652,space,0.650454199349,space,0.417031695863,f,1,0.567091359728,SPR,16,B,,f,59.9814611812,001,2017_01_09_1604,
小明昨天吃了一碗美味的小米粥,昨天沒吃小米粥?,的,美味,小米粥,小明,吃了一碗,j,昨天,12,3,58,0,4,4,17,space,0.383784532714,space,0.416929065323,space,0.5838836896,space,0.667145477608,space,0.450472672848,space,0.550351529331,space,0.6004312851,j,1,0.717318390329,SPR,16,B,,f,59.9814611812,001,2017_01_09_1604,
童年的回憶總是美好而快樂的,童年回憶很痛苦?,而,美好,快樂的,童年的,總是,j,回憶,13,3,62,0,5,5,21,space,0.433769947333,space,0.600386285558,space,0.850336647905,space,0.783800085177,space,1.10052582362,space,0.500380719823,space,0.550192846727,j,1,0.866879506619,SPR,16,B,,f,59.9814611812,001,2017_01_09_1604,
外婆感激叔叔協助的警察,外婆感激警察？,的,協助,警察,外婆,叔叔,f,感激,11,2,31,0,6,6,6,space,0.383837032176,space,0.58369895463,space,0.583842242646,space,0.567057017972,space,0.600306549524,space,0.600393785484,space,0.783695086247,f,1,0.850284543172,SPR,16,B,,f,59.9814611812,001,2017_01_09_1604,
隔壁的大伯擅長修理各種電器,大伯不會修電器?,各種,修理,電器,隔壁的,擅長,j,大伯,13,3,64,0,7,7,23,space,0.400502258068,space,0.683827677007,space,0.650456567739,space,0.483698520424,space,0.417147747321,space,0.467124083087,space,0.5836444815,j,1,0.90048745559,SPR,16,B,,f,59.9814611812,001,2017_01_09_1604,
朋友毆打駕駛員碰見的盜賊,朋友幫助盜賊？,的,碰見,盜賊,朋友,駕駛員,j,毆打,12,2,32,0,8,8,7,space,0.400531468295,space,0.48379957203,space,0.650424199652,space,0.550371660705,space,0.633843051852,space,0.583750664635,space,0.566891230177,j,1,0.850468093937,SPR,16,B,,f,59.9814611812,001,2017_01_09_1604,
媽媽的拿手菜是糖醋排骨,媽媽有拿手菜?,糖醋,是,排骨,媽媽,拿手菜,f,的,11,3,59,0,9,9,18,space,0.45039569994,space,0.550332582156,space,0.600532336714,space,0.683740441047,space,0.483946807384,space,0.617388613296,space,0.633718316276,f,1,0.933886985622,SPR,16,B,,f,59.9814611812,001,2017_01_09_1604,
警衛攔住責備治療師的婦女,婦女沒責備治療師？,的,治療師,婦女,警衛,責備,j,攔住,12,1,62,0,10,10,13,space,0.500507823795,space,1.05007383478,space,0.833634711853,space,1.11715315516,space,0.950351687228,space,0.467131977741,space,0.600475889922,j,1,1.03376584211,SPR,16,B,,f,59.9814611812,001,2017_01_09_1604,
教授排斥支持小林的研究員,研究員不支持小林？,的,小林,研究員,教授,支持,j,排斥,12,1,64,0,11,11,15,space,0.450454120401,space,1.10042911407,space,1.1671784378,space,0.667185740356,space,0.600403259072,space,0.500483350363,space,0.433919945812,j,1,0.967397040848,SPR,16,B,,f,59.9814611812,001,2017_01_09_1604,
鄰居尊敬市民信任的委員,委員尊敬鄰居？,的,信任,委員,鄰居,市民,j,尊敬,11,2,28,0,12,12,3,space,0.400515284258,space,0.417013143422,space,0.500313615245,space,0.533552489011,space,0.767051965391,space,0.500414666851,space,0.600559573279,j,1,1.15010742654,SPR,16,B,,f,59.9814611812,001,2017_01_09_1604,
導演無視撞見業務員的藝人,藝人撞見業務員？,的,業務員,藝人,導演,撞見,f,無視,12,1,63,0,13,13,14,space,0.450529909103,space,0.849968756898,space,0.933954879671,space,0.733781907737,space,0.73379493392,space,0.683766888149,space,0.550387844756,f,1,1.75035792401,SPR,16,B,,f,59.9814611812,001,2017_01_09_1604,
助手賄賂小吳批評的評論家,助手賄賂評論家？,的,批評,評論家,助手,小吳,f,賄賂,12,2,29,0,14,14,4,space,0.467125267285,space,0.66661890399,space,1.01710732668,space,1.01702916957,space,1.20042560095,space,0.833716026827,space,2.25045127832,f,1,3.51712765542,SPR,16,B,,f,59.9814611812,001,2017_01_09_1604,
大叔喜歡孩子親近的阿姨,大叔喜歡阿姨？,的,親近,阿姨,大叔,孩子,f,喜歡,11,2,27,0,15,15,2,space,0.433750210686,space,0.500445456011,space,0.500311641576,space,0.500432824556,space,0.500449403342,space,0.717059445582,space,0.400546862875,f,1,0.650396963087,SPR,16,B,,f,59.9814611812,001,2017_01_09_1604,
小明認識捧紅大姑姑的明星,小明認識大姑姑？,的,大姑姑,明星,小明,捧紅,j,認識,12,1,60,0,16,16,11,space,0.433755736951,space,0.416874592192,space,0.400324628295,space,0.583750269892,space,0.400388969741,space,0.400379101426,space,0.600464442665,j,1,3.53347630557,SPR,16,B,,f,59.9814611812,001,2017_01_09_1604,
店長錯怪顧客熟悉的職工,店長錯怪職工？,的,熟悉,職工,店長,顧客,f,錯怪,11,2,25,0,17,17,0,space,0.417111826631,space,0.950369844933,space,0.750368976522,space,1.51685134242,space,0.517202259922,space,2.28371304659,space,1.00060788858,f,1,0.916853868715,SPR,16,B,,f,59.9814611812,001,2017_01_09_1604,
法官偏袒詆毀代理商的律師,律師詆毀代理商？,的,代理商,律師,法官,詆毀,f,偏袒,12,1,61,0,18,18,12,space,0.36685996734,space,0.367282331477,space,1.83368365873,space,0.50038703555,space,0.550415870784,space,0.400634888305,space,0.783494561962,f,1,2.26712084628,SPR,16,B,,f,59.9814611812,001,2017_01_09_1604,
每個人都應該要遵守交通規則,交通規則要遵守?,交通,遵守,規則,每個人,要,f,都應該,13,3,63,0,19,19,22,space,0.317137839527,space,0.35042960749,space,0.366814573063,space,0.333645961742,space,0.317077050669,space,0.35052315917,space,0.383643218345,f,1,0.683682810057,SPR,16,B,,f,59.9814611812,001,2017_01_09_1604,
群眾反感討好主播的發言人,群眾反感發言人？,的,主播,發言人,群眾,討好,f,反感,12,1,57,0,20,20,8,space,0.333711882129,space,0.350416976034,space,0.617011248702,space,0.367105491168,space,0.517362916195,space,0.417075116478,space,0.500363351581,f,1,0.999989736949,SPR,16,B,,f,59.9814611812,001,2017_01_09_1604,
海關扣留侮辱空服員的旅客,海關扣留空服員？,的,空服員,旅客,海關,侮辱,j,扣留,12,1,58,0,21,21,9,space,0.316686659884,space,0.367097991242,space,0.667073241493,space,1.06708050458,space,0.833782341942,space,0.800376101448,space,0.65042143652,j,1,1.95032050333,SPR,16,B,,f,59.9814611812,001,2017_01_09_1604,
政府豁免犯人檢舉的同伴,同伴豁免政府？,的,檢舉,同伴,政府,犯人,j,豁免,11,2,26,0,22,22,1,space,0.483843387374,space,0.683842676859,space,0.683638205242,space,0.483764835539,space,0.517042393127,space,0.517097260985,space,0.567169516835,j,1,1.06699997908,SPR,16,B,,f,59.9814611812,001,2017_01_09_1604,
我今天學會了一個新的技能,我沒學會技能?,新的,一個,技能,我,學會了,j,今天,12,3,60,0,23,23,19,space,0.383784532707,space,0.417026169598,space,0.350476580694,space,0.350400002528,space,0.433751394885,space,0.367110227962,space,0.400235023932,j,1,0.750358713471,SPR,16,B,,f,59.9814611812,001,2017_01_09_1604,
警察逮捕唆使兇嫌的槍手,警察逮捕兇嫌？,的,兇嫌,槍手,警察,唆使,j,逮捕,11,1,42,0,0,0,9,space,0.350765919873,space,0.417181299606,space,0.567097280727,space,0.550570606058,space,0.967072965184,space,0.466823296658,space,0.583667375999,j,1,0.800581362535,SPR,16,B,,f,59.9814611812,001,2017_01_09_1604,
今年新出了很多部好看的美劇,今年有很多美劇?,的,好看,美劇,今年,很多部,f,新出了,13,3,41,0,1,1,16,space,0.350438686342,space,0.417129984336,space,0.41675143555,space,0.317160734026,space,0.367091675515,space,0.400457653261,space,0.500428482497,f,1,1.40107185756,SPR,16,B,,f,59.9814611812,001,2017_01_09_1604,
攝影師誣陷張三認識的司機,攝影師誣陷司機？,的,認識,司機,攝影師,張三,f,誣陷,12,2,9,0,2,2,0,space,0.36719154293,space,0.367084965066,space,0.967085596632,space,0.400408311652,space,0.433743894966,space,0.400458047996,space,0.817057511391,f,1,1.233755658,SPR,16,B,,f,59.9814611812,001,2017_01_09_1604,
學校的操場上聚集了很多學生,操場上沒有學生?,很多,聚集了,學生,學校,操場上,j,的,13,3,44,0,3,3,19,space,0.267114135815,space,0.300437482409,space,0.417114589764,space,1.13369088234,space,1.36714575392,space,0.467125662013,space,0.383801111486,j,1,0.600367338382,SPR,16,B,,f,59.9814611812,001,2017_01_09_1604,
舅舅斥責讚賞女婿的工程師,工程師讚賞女婿？,的,女婿,工程師,舅舅,讚賞,f,斥責,12,1,47,0,4,4,14,space,0.38383940058,space,0.400479758297,space,2.51719594419,space,2.41718879953,space,0.367049044376,space,0.367071938876,space,0.400362127912,f,1,3.55088165554,SPR,16,B,,f,59.9814611812,001,2017_01_09_1604,
小朋友需要父母的關愛和鼓勵,小朋友不需要鼓勵？,關愛和,的,鼓勵,小朋友,父母,j,需要,13,3,48,0,5,5,23,space,0.433386661745,space,0.533473937168,space,0.633413977252,space,0.850631118607,space,0.333575699296,space,0.367063649486,space,0.317016656547,j,1,0.650356305603,SPR,16,B,,f,59.9814611812,001,2017_01_09_1604,
小林懷疑攔住廣播員的大叔,大叔沒攔廣播員？,的,廣播員,大叔,小林,攔住,j,懷疑,12,1,46,0,6,6,13,space,0.350476185966,space,0.400589494027,space,0.433477845028,space,0.500400456469,space,0.683794519449,space,0.383615587052,space,0.467138688196,j,1,1.26706282055,SPR,16,B,,f,59.9814611812,001,2017_01_09_1604,
小郭嘲笑哥哥嫉妒的富商,小郭欣賞富商？,的,嫉妒,富商,小郭,哥哥,j,嘲笑,11,2,14,0,7,7,5,space,0.317088497919,space,0.36708299139,space,0.517055024575,space,0.450477014907,space,0.517016340753,space,0.467131583013,space,0.450444646805,f,0,4.00049144239,SPR,16,B,,f,59.9814611812,001,2017_01_09_1604,
心理師理解關心小金的助教,心理師理解助教？,的,小金,助教,心理師,關心,f,理解,12,1,41,0,8,8,8,space,0.333796354957,space,1.61718729955,space,0.550313240245,space,2.60042575884,space,2.98383055856,space,2.00053644193,space,1.51718568115,f,1,0.83372510568,SPR,16,B,,f,59.9814611812,001,2017_01_09_1604,
教授同情群眾欺瞞的主席,教授批評主席？,的,欺瞞,主席,教授,群眾,j,同情,11,2,16,0,9,9,7,space,0.350469080775,space,0.400087788585,space,1.10063713828,space,0.467045925987,space,0.717020761767,space,0.400240944924,space,1.00035407536,j,1,0.667049557524,SPR,16,B,,f,59.9814611812,001,2017_01_09_1604,
院長刁難醫生厭煩的病人,病人刁難院長？,的,厭煩,病人,院長,醫生,j,刁難,11,2,10,0,10,10,1,space,0.367210884833,space,0.467098030713,space,2.06735444917,space,1.15047018602,space,0.467311186454,space,0.533788144516,space,0.383977951802,j,1,0.96711954366,SPR,16,B,,f,59.9814611812,001,2017_01_09_1604,
姐姐想要羨慕舞者的造型師,造型師討厭舞者？,的,舞者,造型師,姐姐,羨慕,j,想要,12,1,48,0,11,11,15,space,0.383707559806,space,0.800509521156,space,0.850359542412,space,0.78362916586,space,1.40007989393,space,1.60049365289,space,1.40047146891,j,1,1.46706289949,SPR,16,B,,f,59.9814611812,001,2017_01_09_1604,
爺爺羨慕總統拜訪的老人,爺爺羨慕老人？,的,拜訪,老人,爺爺,總統,f,羨慕,11,2,11,0,12,12,2,space,0.300127617127,space,0.484320224648,space,0.734042036675,space,0.550477449113,space,0.633660685278,space,0.367099175441,space,0.483899834173,f,1,0.783689165255,SPR,16,B,,f,59.9814611812,001,2017_01_09_1604,
旅客結識佩服科學家的商人,商人佩服科學家？,的,科學家,商人,旅客,佩服,f,結識,12,1,45,0,13,13,12,space,0.30041261424,space,1.55085797158,space,1.43353981808,space,1.20045717958,None,,space,0.13370548746,space,1.96730822595,j,0,2.28388830797,SPR,16,B,,f,59.9814611812,001,2017_01_09_1604,
大學部設置了許多不同的課程,大學課程有很多?,教學,的,課程,大學部,許多不同,f,設置了,13,3,47,0,14,14,22,space,0.383720980724,space,0.517189233738,space,0.367045097046,space,0.384050977373,space,0.283754098804,space,0.31714376052,space,0.400366075235,f,1,1.6667511395,SPR,16,B,,f,59.9814611812,001,2017_01_09_1604,
明星資助尊敬在地人的導遊,明星資助在地人？,的,在地人,導遊,明星,尊敬,j,資助,12,1,44,0,15,15,11,space,0.450450962533,space,0.350024611587,space,0.683732546393,space,0.800528863067,space,0.483691020498,space,0.467085004537,space,0.567010834231,j,1,1.16704936016,SPR,16,B,,f,59.9814611812,001,2017_01_09_1604,
老師今天分配了很多重要的任務,老師分配了任務?,的,很多重要,任務,老師,分配了,f,今天,11,3,45,0,16,16,20,space,0.383842558433,space,0.399829633308,space,0.467140661865,space,0.317049419369,space,0.383705586137,space,0.40040239066,space,0.400419364174,f,1,0.733839538727,SPR,16,B,,f,59.9814611812,001,2017_01_09_1604,
她的書架上擺放了一大堆的書,書架上沒有書?,的,一大堆,書,她的,擺放了,j,書架上,13,3,42,0,17,17,17,space,0.350439870548,space,0.467068425751,space,0.350154083964,space,0.267080583522,space,0.450415436579,space,0.400382259286,space,0.417061300825,j,1,0.717021551231,SPR,16,B,,f,59.9814611812,001,2017_01_09_1604,
王總讚賞隊員維護的教練,王總讚賞教練？,的,維護,教練,王總,隊員,f,讚賞,11,2,15,0,18,18,6,space,0.283708309798,space,0.400407522189,space,0.450487277958,space,0.467112241102,space,0.467060925832,space,0.40049278448,space,0.533372885569,f,1,1.21724319372,SPR,16,B,,f,59.9814611812,001,2017_01_09_1604,
局長辭退害怕老闆的藥劑師,局長辭退藥劑師？,的,老闆,藥劑師,局長,害怕,f,辭退,12,1,43,0,19,19,10,space,0.300430771946,space,0.400124498738,space,0.667074425692,space,0.650371700183,space,0.750395423624,space,0.517166339239,space,1.8173207982,f,1,0.88397814917,SPR,16,B,,f,59.9814611812,001,2017_01_09_1604,
叔叔推薦小王欣賞的村長,村長推薦叔叔？,的,欣賞,村長,叔叔,小王,j,推薦,11,2,12,0,20,20,3,space,0.383758875076,space,0.500384272425,space,0.766919729896,space,0.78378311167,space,0.467101978051,space,0.567143464468,space,0.433695342821,j,1,0.984114766208,SPR,16,B,,f,59.9814611812,001,2017_01_09_1604,
飛上太空是許多人心中的夢想,飛上太空是夢想?,的,心中,夢想,飛上太空,許多人,f,是,13,3,43,0,21,21,18,space,0.283838966367,space,0.467332896755,space,0.466662245657,space,0.267094004448,space,0.317035208987,space,0.367130754072,space,0.450280043209,f,1,0.567123727822,SPR,16,B,,f,59.9814611812,001,2017_01_09_1604,
記者打壓王總邀請的政客,記者打壓政客？,的,邀請,政客,記者,王總,f,打壓,11,2,13,0,22,22,4,space,0.300363667367,space,0.366986281842,space,0.417117747616,space,1.23361000158,space,0.667287976168,space,0.367179700945,space,0.366817730923,f,1,0.833696290181,SPR,16,B,,f,59.9814611812,001,2017_01_09_1604,
姐姐非常喜歡吃抹茶霜淇淋,姐姐討厭霜淇淋?,抹茶,吃,霜淇淋,姐姐,喜歡,j,非常,12,3,46,0,23,23,21,space,0.30050813959,space,0.483804703559,space,0.400426074637,space,0.350836971782,space,0.300538139287,space,0.383774269656,space,0.417046695715,j,1,0.833905103857,SPR,16,B,,f,59.9814611812,001,2017_01_09_1604,
