Sentences,Question,word5,word4,word6,word1,word3,Ans,word2,lenth,Type,ID,practicetrials.thisRepN,practicetrials.thisTrialN,practicetrials.thisN,practicetrials.thisIndex,key_resp_12.keys,key_resp_12.rt,Atests1.keys,Atests1.rt,Atests2.keys,Atests2.rt,Atests3.keys,Atests3.rt,Atests4.keys,Atests4.rt,Atests5.keys,Atests5.rt,Atests6.keys,Atests6.rt,key_resp_8.keys,key_resp_8.corr,key_resp_8.rt,expName,participant,version,Grade,Gender,frameRate,session,date,
律師帮助惹怒上尉的服務員,律師無視服務員？,的,上尉,服務員,律師,惹怒,j,幫助,12,1,30,0,0,0,5,space,0.600165235821,space,0.666966533234,space,0.750416148742,space,0.800330313747,space,0.883857297198,space,0.600321155908,space,0.767055782681,j,1,2.75033049138,SPR,17,A,,f,59.7255549138,001,2017_01_10_1510,
警衛攔住治療師責備的婦女,治療師沒責備婦女？,的,責備,婦女,警衛,治療師,j,攔住,12,2,62,0,1,1,13,space,0.433771264836,space,0.517104433696,space,0.733713357298,space,0.73374572552,space,0.900376142411,space,0.617106446842,space,1.86711582178,j,1,3.03387255368,SPR,17,A,,f,59.7255549138,001,2017_01_10_1510,
他一邊寫作業一邊看著電視,他沒在看電視？,看著,一邊,電視,他,寫作業,j,一邊,12,3,26,0,2,2,17,space,0.433810343541,space,0.650229794632,space,0.734119144263,space,0.867090558782,space,0.483736745312,space,0.517126144088,space,0.667134690088,j,1,1.51710759157,SPR,17,A,,f,59.7255549138,001,2017_01_10_1510,
大叔喜歡親近孩子的阿姨,大叔喜歡阿姨？,的,孩子,阿姨,大叔,親近,f,喜歡,11,1,27,0,3,3,2,space,0.400396471233,space,0.73380138307,space,0.567074650986,space,0.533716830962,space,0.517028644691,space,0.750394043615,space,1.25041200403,f,1,1.13367759436,SPR,17,A,,f,59.7255549138,001,2017_01_10_1510,
今天爸爸買了一籃新鮮的水果,爸爸買了水果？,的,新鮮,各種水果,今天,買了,f,爸爸,13,3,27,0,4,4,18,space,0.483755692564,space,0.917048934039,space,0.600302603392,space,0.683704456038,space,0.633831738146,space,0.550381333168,space,0.950436753878,f,1,0.833684186427,SPR,17,A,,f,59.7255549138,001,2017_01_10_1510,
弟弟花光了所有的零花錢,弟弟還有零花錢？,的,所有,零花錢,弟弟,光了,j,花,11,3,30,0,5,5,21,space,0.400415813218,space,0.634008579158,space,0.633616213163,space,0.666992585704,space,0.667055743208,space,0.633705817872,space,1.00038920812,j,1,1.08371211389,SPR,17,A,,f,59.7255549138,001,2017_01_10_1510,
助手賄賂批評小吳的評論家,助手賄賂評論家？,的,小吳,評論家,助手,批評,f,賄賂,12,1,29,0,6,6,4,space,0.450352083349,space,0.617162893861,space,0.800458997162,space,1.18374886366,space,0.667011532955,space,0.683775508231,space,1.08366948257,j,0,3.06702471708,SPR,17,A,,f,59.7255549138,001,2017_01_10_1510,
參加國際會議是令人高興的事,參會不值得高興？,的,令人高興,事,參加,是,j,國際會議,13,3,28,0,7,7,19,space,0.433774027977,space,0.683715903336,space,0.767094466652,space,0.583784547648,space,0.600367734568,space,0.583734811114,space,1.29912657119,j,1,2.18472346289,SPR,17,A,,f,59.7255549138,001,2017_01_10_1510,
小明認識大姑姑捧紅的明星,小明認識大姑姑？,的,捧紅,明星,小明,大姑姑,j,認識,12,2,60,0,8,8,11,space,0.400468312893,space,0.467162242549,space,0.600431681541,space,0.75047062209,space,0.500263090478,space,0.6504646616,space,0.666952717529,f,0,2.81706626288,SPR,17,A,,f,59.7255549138,001,2017_01_10_1510,
朋友毆打碰見駕駛員的盜賊,朋友幫助盜賊？,的,駕駛員,盜賊,朋友,碰見,j,毆打,12,1,32,0,9,9,7,space,0.567154782069,space,1.01707621019,space,0.900310221766,space,0.600385102882,space,0.633612265819,space,0.750448911697,space,2.01713976243,f,0,4.46702329604,SPR,17,A,,f,59.7255549138,001,2017_01_10_1510,
教授排斥小林支持的研究員,小林不支持研究員？,的,支持,研究員,教授,小林,j,排斥,12,2,64,0,10,10,15,space,0.483800297551,space,0.917151959718,space,0.783835942067,space,0.800612943578,space,1.56698701995,space,0.700454220875,space,1.43374087029,j,1,1.98381628429,SPR,17,A,,f,59.7255549138,001,2017_01_10_1510,
家長們準備了豐盛的晚餐,晚餐沒有東西吃？,的,豐盛,晚餐,家長們,了,j,準備,11,3,32,0,11,11,23,space,0.533842751236,space,0.583741521598,space,1.0170923943,space,0.750500621903,space,0.767073940464,space,0.600344050504,space,0.883756245192,j,1,1.2172491828,SPR,17,A,,f,59.7255549138,001,2017_01_10_1510,
鄉村的風景迷人且空氣新鮮,鄉村的風景很好？,空氣,且,新鮮,鄉村的,迷人,f,風景,12,3,29,0,12,12,20,space,0.450433398636,space,1.00056920701,space,0.950383859468,space,0.683714719133,space,0.61708473645,space,0.633765028032,space,0.867198716008,f,1,1.50055045712,SPR,17,A,,f,59.7255549138,001,2017_01_10_1510,
孩子們快樂地享受著陽光,孩子們喜歡陽光？,著,享受,陽光,孩子們,的,f,快樂,11,3,31,0,13,13,22,space,0.400456865596,space,0.833805764622,space,0.700403300138,space,0.750484043059,space,0.667184426622,space,0.500441115693,space,0.683717482274,f,1,1.83372681774,SPR,17,A,,f,59.7255549138,001,2017_01_10_1510,
政府豁免檢舉犯人的同伴,同伴豁免政府？,的,犯人,同伴,政府,檢舉,j,豁免,11,1,26,0,14,14,1,space,0.500425326317,space,0.700428957874,space,0.767024203929,space,0.617104078436,space,0.867232268432,space,1.21679760665,space,1.35038520157,j,1,1.81710218371,SPR,17,A,,f,59.7255549138,001,2017_01_10_1510,
聖誕節是個令人快樂的節日,聖誕節讓人快樂？,的,快樂,節日,聖誕節,令人,f,是個,12,3,25,0,15,15,16,space,0.467093558764,space,0.633649765588,space,0.633768975376,space,0.617137630859,space,0.533698673179,space,0.566816494687,space,0.467036717009,f,1,0.767051440604,SPR,17,A,,f,59.7255549138,001,2017_01_10_1510,
鄰居尊敬信任市民的委員,委員尊敬鄰居？,的,市民,委員,鄰居,信任,j,尊敬,11,1,28,0,16,16,3,space,0.467155137329,space,0.500381116064,space,1.08373342954,space,0.683898665364,space,1.55031343885,space,0.967079545692,space,0.700109223008,j,1,1.31699264491,SPR,17,A,,f,59.7255549138,001,2017_01_10_1510,
群眾反感主播討好的發言人,群眾反感發言人？,的,討好,發言人,群眾,主播,f,反感,12,2,57,0,17,17,8,space,0.450596423943,space,0.433670212828,space,1.01720213046,space,0.68369379821,space,0.766957099081,space,0.650523082291,space,1.11698546075,f,1,1.9004471946,SPR,17,A,,f,59.7255549138,001,2017_01_10_1510,
店長錯怪熟悉顧客的職工,店長錯怪職工？,的,顧客,職工,店長,熟悉,f,錯怪,11,1,25,0,18,18,0,space,0.43377442271,space,0.417019921061,space,0.833752870212,space,0.716976223963,space,1.36706825629,space,0.450524187548,space,1.11711532837,f,1,1.06703221704,SPR,17,A,,f,59.7255549138,001,2017_01_10_1510,
導演無視業務員撞見的藝人,業務員撞見藝人？,的,撞見,藝人,導演,業務員,f,無視,12,2,63,0,19,19,14,space,0.417111104707,space,0.533686436413,space,0.616983684443,space,0.700359484618,space,1.4003226559,space,0.483750561017,space,1.03366255498,f,1,1.56674465303,SPR,17,A,,f,59.7255549138,001,2017_01_10_1510,
海關扣留空服員侮辱的旅客,海關扣留空服員？,的,侮辱,旅客,海關,空服員,j,扣留,12,2,58,0,20,20,9,space,0.433819027699,space,0.467071453638,space,0.567048598515,space,0.716828198562,space,0.717039381468,space,1.13383272498,space,0.817048105097,j,1,3.18376662671,SPR,17,A,,f,59.7255549138,001,2017_01_10_1510,
上司懲罰小明責罵的管理員,上司懲罰管理員？,的,責罵,管理員,上司,小明,f,懲罰,12,2,59,0,21,21,10,space,0.600279708797,space,0.450384846304,space,1.30049116802,space,0.667102321867,space,0.650338741327,space,1.40043633941,space,0.8337481334,f,1,0.933700015275,SPR,17,A,,f,59.7255549138,001,2017_01_10_1510,
外婆感激協助叔叔的警察,外婆感激警察？,的,叔叔,警察,外婆,協助,f,感激,11,1,31,0,22,22,6,space,0.450447214339,space,0.850423688169,space,0.933602910613,space,0.867096085063,space,0.767195123925,space,1.50047151024,space,0.883743218957,f,1,0.666955480669,SPR,17,A,,f,59.7255549138,001,2017_01_10_1510,
法官偏袒代理商詆毀的律師,代理商詆毀律師？,的,詆毀,律師,法官,代理商,f,偏袒,12,2,61,0,23,23,12,space,0.43372863352,space,0.550301991553,space,0.567113729691,space,0.767138676905,space,0.933473832464,space,0.800422286862,space,1.30047024709,f,1,1.43371758096,SPR,17,A,,f,59.7255549138,001,2017_01_10_1510,
有人明年要在高雄舉辦演唱會,明年有演唱會？,舉辦,高雄,演唱會,有人,要在,f,明年,13,3,17,0,0,0,16,space,0.817228893453,space,1.06723116318,space,0.700350405727,space,0.6503166362,space,0.533781172669,space,0.517258774847,space,0.550675805031,f,1,2.40014739383,SPR,17,A,,f,59.7255549138,001,2017_01_10_1510,
夏天是個非常美麗的季節,夏天是個好季節？,的,美麗,季節,夏天,非常,f,是個,11,3,23,0,1,1,22,space,0.450412082978,space,0.717202801509,space,0.683689456131,space,0.567131887474,space,0.516972197673,space,0.483726876952,space,0.567080572002,f,1,1.25042858288,SPR,17,A,,f,59.7255549138,001,2017_01_10_1510,
媽媽討厭小白忽視的企業家,小白忽視企業家？,的,忽視,企業家,媽媽,小白,f,討厭,12,2,55,0,2,2,14,space,0.417087025909,space,0.500368484563,space,0.567042282764,space,0.750467464214,space,0.700381589746,space,0.517118644135,space,1.08342277357,f,1,1.43356363454,SPR,17,A,,f,59.7255549138,001,2017_01_10_1510,
阿姨看見交警驅趕的行政人員,交警驅趕行政人員？,的,驅趕,行政人員,阿姨,交警,f,看見,13,2,53,0,3,3,12,space,0.417002947482,space,0.483783323972,space,0.80046333924,space,0.667109821821,space,1.16709738769,space,0.533858540612,space,0.733662831296,f,1,1.13363338411,SPR,17,A,,f,59.7255549138,001,2017_01_10_1510,
鄰居告發砍傷表弟的疑犯,鄰居告發疑犯？,的,表弟,疑犯,鄰居,砍傷,f,告發,11,1,21,0,4,4,4,space,0.967214939592,space,0.567098335049,space,0.717095433752,space,0.817029947315,space,0.750380227912,space,0.950493200897,space,1.30046432608,f,1,1.61719684102,SPR,17,A,,f,59.7255549138,001,2017_01_10_1510,
贊助商支持貴族拉攏的青年,貴族排斥青年？,的,拉攏,青年,贊助商,貴族,j,支持,12,2,54,0,5,5,13,space,0.617126183562,space,0.617066973402,space,1.10050924685,space,0.666793639566,space,0.650524661229,space,0.550399490951,space,1.48378648185,j,1,1.45039155679,SPR,17,A,,f,59.7255549138,001,2017_01_10_1510,
刑警緝拿政府輕視的逃亡者,政府重視逃亡者？,的,輕視,逃亡者,刑警,政府,j,緝拿,12,2,56,0,6,6,15,space,0.500118617688,space,0.767157624157,space,0.75044378015,space,0.783685942994,space,0.800324787465,space,0.900468510261,space,1.10045556297,j,1,1.3336753049,SPR,17,A,,f,59.7255549138,001,2017_01_10_1510,
雨後有時會見到漂亮的彩虹,雨後可能現彩虹？,的,漂亮,彩虹,雨後,會見到,f,有時,12,3,21,0,7,7,20,space,0.483779376627,space,0.683493667868,space,0.783742784748,space,0.650347820218,space,0.600368524037,space,0.45048668778,space,0.617009342179,f,1,1.11712559146,SPR,17,A,,f,59.7255549138,001,2017_01_10_1510,
青年佩服小謝督促的技術員,青年佩服小謝？,的,督促,技術員,青年,小謝,j,佩服,12,2,50,0,8,8,9,space,0.550474885221,space,0.800532023026,space,0.833696028459,space,0.950568989902,space,1.35041441191,space,0.650340714998,space,1.6672116633,j,1,1.86711187444,SPR,17,A,,f,59.7255549138,001,2017_01_10_1510,
哥哥的體育特長是打羽毛球,哥哥不會打羽毛球？,是,特長,打羽毛球,哥哥,體育,j,的,12,3,18,0,9,9,17,space,0.533890119364,space,0.633760291219,space,0.683757745182,space,0.600437207822,space,0.51704561827,space,0.467243163102,space,0.483894244338,j,1,1.06715063736,SPR,17,A,,f,59.7255549138,001,2017_01_10_1510,
妹妹迷戀結識表哥的中醫師,中醫師迷戀妹妹？,的,表哥,中醫師,妹妹,結識,j,迷戀,12,1,20,0,10,10,3,space,0.517222064547,space,0.667086532491,space,0.667061269489,space,0.750460753729,space,0.717115565207,space,0.833769843792,space,1.68386748135,j,1,1.53377367272,SPR,17,A,,f,59.7255549138,001,2017_01_10_1510,
外婆批評辱罵農夫的木匠,外婆批評木匠？,的,農夫,木匠,外婆,辱罵,f,批評,11,1,19,0,11,11,2,space,0.566993730434,space,0.667170216184,space,0.800444391988,space,0.867202663352,space,0.817059157661,space,1.46708329567,space,0.901548898316,f,1,1.0504545564,SPR,17,A,,f,59.7255549138,001,2017_01_10_1510,
主任指責嘲笑上司的會計,主任指責會計？,的,上司,會計,主任,嘲笑,f,指責,11,1,23,0,12,12,6,space,0.583784547648,space,0.85045605639,space,0.833776949011,space,0.950393333093,space,1.7504994377,space,0.664613916203,space,0.73374217291,f,1,0.8003871555,SPR,17,A,,f,59.7255549138,001,2017_01_10_1510,
治療師開導小崔照顧的飛行員,治療師開導飛行員？,的,照顧,飛行員,治療師,小崔,f,開導,13,2,49,0,13,13,8,space,0.617181841112,space,1.20043428679,space,0.717098196893,space,0.800348866263,space,0.683651956363,space,0.600151025382,space,0.66705416427,f,1,0.883692298219,SPR,17,A,,f,59.7255549138,001,2017_01_10_1510,
同伴欺負取笑小郭的廚師,同伴關心廚師？,的,小郭,廚師,同伴,取笑,j,欺負,11,1,22,0,14,14,5,space,0.717152275506,space,0.933865803724,space,0.817015736877,space,0.767060519493,space,0.916947487299,space,0.833795501528,space,0.833783264762,j,1,1.20015481483,SPR,17,A,,f,59.7255549138,001,2017_01_10_1510,
老闆責罵同情雇主的技工,技工責罵老闆？,的,雇主,技工,老闆,同情,j,責罵,11,1,18,0,15,15,1,space,0.683743534743,space,1.01709792058,space,0.867099637673,space,0.833746159728,space,1.25041831978,space,1.10053687826,space,0.550418043467,j,1,1.25066897612,SPR,17,A,,f,59.7255549138,001,2017_01_10_1510,
科學家協助熟識表姐的院士,科學家排斥院士？,的,表姐,院士,科學家 ,熟識,j,協助,12,1,24,0,16,16,7,space,0.433744422897,space,0.600400102789,space,1.03376400172,space,0.933674752274,space,0.917072618104,space,1.13377390956,space,1.48372292961,j,1,0.800353997811,SPR,17,A,,f,59.7255549138,001,2017_01_10_1510,
小王關注航海家資助的演員,小王關注演員？,的,資助,演員,小王,航海家,f,關注,12,2,51,0,17,17,10,space,0.500424536847,space,0.750405490913,space,0.533733409808,space,0.633647002445,space,0.650406240909,space,0.533716830962,space,0.917097881105,f,1,0.767112624435,SPR,17,A,,f,59.7255549138,001,2017_01_10_1510,
偵探跟蹤迷戀老婆的編輯,偵探跟蹤編輯？,的,老婆,編輯,偵探,迷戀,f,跟蹤,11,1,17,0,18,18,0,space,0.400444628829,space,0.616958026707,space,0.700420273717,space,0.783766468812,space,0.850439477545,space,1.1170170395,space,1.36700351985,f,1,1.03369058112,SPR,17,A,,f,59.7255549138,001,2017_01_10_1510,
小張欽佩隊長袒護的消防員,校長欽佩隊長？,的,袒護,消防員,小張,隊長,j,欽佩,12,2,52,0,19,19,11,space,0.450430635496,space,0.55040659617,space,0.833710633631,space,0.633787133158,space,0.916810119727,space,0.400458444534,space,1.05058363455,j,1,2.91710261792,SPR,17,A,,f,59.7255549138,001,2017_01_10_1510,
如果天氣好的話我就去野餐,天氣好也不野餐？,就,我,去野餐,如果,的話,j,天氣好,12,3,24,0,20,20,23,space,0.433842317027,space,0.900353247815,space,0.733729146674,space,1.11719388051,space,1.41705386822,space,0.733723620393,space,0.633766606968,j,1,2.08366395629,SPR,17,A,,f,59.7255549138,001,2017_01_10_1510,
妹妹的個性一向是冷冰冰的,妹妹個性熱情？,是,一向,冷冰冰的,妹妹,個性,j,的,11,3,20,0,21,21,19,space,0.450161426632,space,0.500417826364,space,0.667202584405,space,0.517081144368,space,0.566990177824,space,0.533356043719,space,0.73377454113,j,1,0.983453128645,SPR,17,A,,f,59.7255549138,001,2017_01_10_1510,
大腦裡的奧秘等著你們去解開,大腦里有奧妙？,你們,等著,去解開,大腦裡,奧秘,f,的,13,3,19,0,22,22,18,space,0.367134176933,space,0.417006894824,space,0.401020151587,space,0.650504529774,space,0.383662495771,space,0.567052545859,space,0.583737574254,f,1,1.00039118179,SPR,17,A,,f,59.7255549138,001,2017_01_10_1510,
許多古生物學家著迷於恐龍,學者討厭恐龍？,於,著迷,恐龍,許多,生物學家,j,古,12,3,22,0,23,23,21,space,0.450361162239,space,1.30045129984,space,0.516896803401,space,0.700637772372,space,0.583873362888,space,0.417046763001,space,0.583707179705,j,1,1.10028859032,SPR,17,A,,f,59.7255549138,001,2017_01_10_1510,
粉絲大罵羞辱小周的導演,粉絲大罵導演？,的,小周,導演,粉絲,羞辱,f,大罵,11,1,5,0,0,0,4,space,0.400543312431,space,0.633787133158,space,0.550373833215,space,0.450411688244,space,0.566980704198,space,0.417133209834,space,0.900008644683,f,1,1.00053525985,SPR,17,A,,f,59.7255549138,001,2017_01_10_1510,
名嘴毀謗賞識徐總的詩人,名嘴稱讚詩人？,的,徐總,詩人,名嘴,賞識,j,毀謗,11,1,8,0,1,1,7,space,0.417077947017,space,0.616993552803,space,0.783462128589,space,1.71694188207,space,1.95042412238,space,0.350406911957,space,0.433817054027,j,1,1.2172606301,SPR,17,A,,f,59.7255549138,001,2017_01_10_1510,
商人質疑小陳賄賂的企劃員,商人質疑小陳？,的,賄賂,企劃員,商人,小陳,j,質疑,12,2,36,0,2,2,11,space,0.383865783988,space,0.683815771139,space,0.550210807907,space,0.767239728912,space,1.53377762006,space,0.400508181068,space,2.23384223808,j,1,1.56685320499,SPR,17,A,,f,59.7255549138,001,2017_01_10_1510,
小紅取笑崇拜小張的作家,小紅取笑作家？,的,小張,作家,小紅,崇拜,f,取笑,11,1,1,0,3,3,0,space,0.383809336969,space,0.50050624687,space,0.483760429377,space,0.450353267552,space,0.650379793704,space,0.400443444627,space,2.45041089877,f,1,2.23385526432,SPR,17,A,,f,59.7255549138,001,2017_01_10_1510,
校長相信厭惡房東的小孩,小孩相信校長？,的,房東,小孩,校長,厭惡,j,相信,11,1,2,0,4,4,1,space,0.367125492776,space,0.583766389866,space,0.483737140046,space,0.433676923314,space,0.717226485573,space,0.450448398544,space,0.617111183656,j,1,1.01703673675,SPR,17,A,,f,59.7255549138,001,2017_01_10_1510,
小李暗戀船長招待的賓客,船長招待過賓客？,的,招待,賓客,小李,船長,f,暗戀,11,2,37,0,5,5,12,space,0.350507569228,space,0.750443385416,space,0.48373121903,space,1.16704488801,space,0.750356149114,space,1.56703596701,space,1.18375596888,f,1,1.83376115963,SPR,17,A,,f,59.7255549138,001,2017_01_10_1510,
警察逮捕了正在逃跑的罪犯,罪犯正在逃跑？,的,逃跑,罪犯,警察,正在,f,逮捕了,12,3,1,0,6,6,16,space,0.333754646517,space,0.517030223629,space,0.567043861703,space,0.567110177082,space,0.717106091581,space,0.433540739945,space,1.11708651276,f,1,1.1334932534,SPR,17,A,,f,59.7255549138,001,2017_01_10_1510,
證人揭發搶匪指使的殺手,證人揭發殺手？,的,指使,殺手,證人,搶匪,f,揭發,11,2,35,0,7,7,10,space,0.367089177211,space,0.900446799869,space,0.833748922869,space,0.850334872928,space,0.800392681782,space,0.683735245322,space,1.28371653491,f,1,1.03371623886,SPR,17,A,,f,59.7255549138,001,2017_01_10_1510,
外婆檢舉嬸嬸救治的鄰居,嬸嬸沒救鄰居？,的,救治,鄰居,外婆,嬸嬸,j,檢舉,11,2,38,0,8,8,13,space,0.367126282244,space,0.467065532621,space,0.850570134633,space,0.583737968987,space,0.933703173152,space,0.583742705801,space,0.633814764566,j,1,1.53382183031,SPR,17,A,,f,59.7255549138,001,2017_01_10_1510,
究竟存不存在外星人仍是個謎,外星人是個謎？,是個,仍,謎,究竟,外星人,f,存不存在,13,3,3,0,9,9,18,space,0.367091545619,space,0.450405372492,space,0.800426628941,space,0.667037190691,space,0.650555845246,space,0.683846560423,space,0.483712271778,f,1,1.20038060291,SPR,17,A,,f,59.7255549138,001,2017_01_10_1510,
小劉愛慕欽佩領隊的組長,小劉討厭組長？,的,領隊,組長,小劉,欽佩,j,愛慕,11,1,6,0,10,10,5,space,0.367151150513,space,0.466863033875,space,0.483861876117,space,0.767180518753,space,0.850454872187,space,0.617086710123,space,2.15041630664,j,1,0.783358708177,SPR,17,A,,f,59.7255549138,001,2017_01_10_1510,
村民擔心刺客襲擊的鐵匠,刺客襲擊了鐵匠？,的,襲擊,鐵匠,村民,刺客,f,擔心,11,2,39,0,11,11,14,space,0.383525522933,space,0.533684462742,space,0.650110979577,space,0.517081144366,space,0.516942592592,space,0.517244564409,None,,f,1,1.13371154152,SPR,17,A,,f,59.7255549138,001,2017_01_10_1510,
老師調查傷害弟弟的同學,同學調查老師？,的,弟弟,同學,老師,傷害,j,調查,11,1,4,0,12,12,3,space,0.483775824017,space,0.583784547649,space,0.500408747472,space,0.467015401351,space,0.583771126678,space,0.483524772939,space,1.03383347498,j,1,0.917132617733,SPR,17,A,,f,59.7255549138,001,2017_01_10_1510,
強盜綁架主人誣陷的管家,強盜綁架主人？,的,誣陷,管家,強盜,主人,j,綁架,11,2,34,0,13,13,9,space,0.333668199683,space,0.800401760673,space,0.683809850123,space,0.767037230164,space,1.66718047928,space,2.450493793,space,0.700267906237,j,1,2.18371807438,SPR,17,A,,f,59.7255549138,001,2017_01_10_1510,
敵人搜查戰士掩護的村民,戰士沒掩護村民？,的,掩護,村民,敵人,戰士,j,搜查,11,2,40,0,14,14,15,space,0.367148782107,space,0.783745153154,space,0.567030045999,space,0.65042518816,space,1.05039179363,space,0.650512029728,space,1.68363814066,j,1,1.45066629193,SPR,17,A,,f,59.7255549138,001,2017_01_10_1510,
叔叔有很多棟房子和別墅,叔叔沒有房子？,和,房子,別墅,叔叔,很多棟,j,有,11,3,8,0,15,15,23,space,0.350454674821,space,0.500416247425,space,0.417164393852,space,0.450492608796,space,0.383728021683,space,0.900442852524,space,0.516988381782,j,1,1.06730853112,SPR,17,A,,f,59.7255549138,001,2017_01_10_1510,
公園裡擠滿了玩鬧的小孩,公園裡有小孩？,的,玩鬧,小孩,公園裡,滿了,f,擠,11,3,7,0,16,16,22,space,0.617224077694,space,0.883772824036,space,0.783821731629,space,0.933724094075,space,0.617112762593,space,0.533713673085,space,1.96705309849,f,1,0.767061308963,SPR,17,A,,f,59.7255549138,001,2017_01_10_1510,
王董賞識表揚工人的廠長,王董賞識廠長？,的,工人,廠長,王董,表揚,f,賞識,11,1,3,0,17,17,2,space,0.400450155112,space,0.567191097634,space,0.767098808732,space,1.46693290186,space,1.18353570708,space,0.500514141557,space,1.40041818162,f,1,1.25045700375,SPR,17,A,,f,59.7255549138,001,2017_01_10_1510,
助教嫌棄局長愛慕的學生,助教嫌棄學生？,的,愛慕,學生,助教,局長,f,嫌棄,11,2,33,0,18,18,8,space,0.483819244802,space,1.10070424564,space,0.500567035968,space,0.500544536108,space,1.10047056288,space,0.567097940315,space,0.767148150531,f,1,0.700309353351,SPR,17,A,,f,59.7255549138,001,2017_01_10_1510,
茶餐廳裡有很多好吃的甜點,餐廳裡有甜點？,的,好吃,甜點,茶餐廳裡,很多,f,有,12,3,5,0,19,19,20,space,0.450458266903,space,0.650510056055,space,0.733759935958,space,0.533828146064,space,0.483775824017,space,0.417219656667,space,0.633745686047,f,1,0.983744837367,SPR,17,A,,f,59.7255549138,001,2017_01_10_1510,
傳統小說有很多精華的部分,小說沒有精華？,的,精華,部分,傳統小說,很多 ,j,有 ,12,3,6,0,20,20,21,space,0.400439892017,space,0.617076447026,space,0.533817882968,space,0.45041129351,space,0.634116341649,space,0.750402727772,space,0.550421596077,j,1,1.15014472937,SPR,17,A,,f,59.7255549138,001,2017_01_10_1510,
村民援助舉薦小潘的水手,村民援助水手？,的,小潘,水手,村民,舉薦,f,援助,11,1,7,0,21,21,6,space,0.417149393945,space,0.517149433417,space,0.533666699694,space,0.60040641854,space,0.767099598199,space,0.467022111836,space,1.38376275831,f,1,5.18390281007,SPR,17,A,,f,59.7255549138,001,2017_01_10_1510,
老師這次沒有劃考試的重點,老師劃了重點？,的,劃考試,重點,老師,沒有,j,這次,12,3,4,0,22,22,19,space,0.383766705654,space,0.433691133752,space,0.650401898831,space,0.750425227634,space,0.61727657737,space,0.533794198904,space,0.533937092758,j,1,0.783704890246,SPR,17,A,,f,59.7255549138,001,2017_01_10_1510,
司機們大部分都比較好說話,司機討厭說話？,好,比較,說話,司機們,都,j,大部分,12,3,2,0,23,23,17,space,0.483522799266,space,0.617099736357,space,0.700426589468,space,0.783767258283,space,0.783711995464,space,0.783810679066,space,0.6838749813,j,1,1.767370386,SPR,17,A,,f,59.7255549138,001,2017_01_10_1510,
攝影師誣陷認識張三的司機,攝影師誣陷司機？,的,張三,司機,攝影師,認識,f,誣陷,12,1,9,0,0,0,0,space,0.450631555306,space,1.30050498372,space,0.700462510296,space,1.26718071612,space,0.767166703048,space,0.417090578519,space,1.10046108925,f,1,0.750349833363,SPR,17,A,,f,59.7255549138,001,2017_01_10_1510,
小林懷疑廣播員攔住的大叔,廣播員沒攔大叔？,的,攔住,大叔,小林,廣播員,j,懷疑,12,2,46,0,1,1,13,space,0.383831442094,space,0.450446424869,space,0.500434405207,space,0.483793192332,space,0.51708588118,space,0.549337655413,space,0.868049368641,j,1,1.38377894242,SPR,17,A,,f,59.7255549138,001,2017_01_10_1510,
叔叔推薦欣賞小王的村長,村長推薦叔叔？,的,小王,村長,叔叔,欣賞,j,推薦,11,1,12,0,2,2,3,space,0.383788416044,space,0.433919290235,space,0.600336945285,space,0.600399708055,space,0.850435924936,space,0.400386997606,space,1.0005060495,j,1,0.933960934715,SPR,17,A,,f,59.7255549138,001,2017_01_10_1510,
明星資助在地人尊敬的導遊,明星資助在地人？,的,尊敬,導遊,明星,在地人,j,資助,12,2,44,0,3,3,11,space,0.367221413235,space,0.417084262768,space,0.517230353971,space,0.483720561202,space,0.817084420662,space,0.600499970593,space,0.667045480115,j,1,1.28370429814,SPR,17,A,,f,59.7255549138,001,2017_01_10_1510,
室友鼓足勇氣參加了圍棋比賽,室友參加了比賽？,圍棋,參加了,比賽,室友,勇氣,f,鼓足,13,3,11,0,4,4,18,space,0.350466122118,space,0.433729422988,space,0.467064743152,space,0.58380902118,space,0.550499358755,space,0.533810777748,space,0.567137019021,f,1,0.700115933492,SPR,17,A,,f,59.7255549138,001,2017_01_10_1510,
這個問題同學們一起討論過,問題沒有被討論？,一起,們,討論過,這個,同學,j,問題,12,3,16,0,5,5,23,space,0.317220406663,space,0.667201005468,space,0.400326997978,space,0.516858514164,space,0.51714074926,space,0.450300767878,space,0.650490319336,j,1,1.11603928239,SPR,17,A,,f,59.7255549138,001,2017_01_10_1510,
警察逮捕兇嫌唆使的槍手,警察逮捕兇嫌？,的,唆使,槍手,警察,兇嫌,j,逮捕,11,2,42,0,6,6,9,space,0.350432964427,space,0.533874329987,space,0.433813106683,space,0.483690561387,space,0.500379537127,space,0.467146453173,space,0.933768304327,j,1,1.68400879626,SPR,17,A,,f,59.7255549138,001,2017_01_10_1510,
新發芽的種子需要很多肥料,種子需要肥料？,很多,需要,肥料,新發芽,種子,f,的,12,3,13,0,7,7,20,space,0.417133604569,space,0.733748488661,space,0.583857178777,space,0.567133071676,space,0.617060657651,space,0.433762185945,space,0.366920625622,f,1,0.650478872039,SPR,17,A,,f,59.7255549138,001,2017_01_10_1510,
為了進步就要不斷嚐試新方法,進步需要新方法？,嘗試,不斷,新方法,為了,就要,f,進步,13,3,15,0,8,8,22,space,0.383739863715,space,0.367092335087,space,0.500437563085,space,0.400394892295,space,0.400399234373,space,0.383721705932,space,0.516722330796,f,1,1.26700782245,SPR,17,A,,f,59.7255549138,001,2017_01_10_1510,
院長刁難厭煩醫生的病人,病人刁難院長？,的,醫生,病人,院長,厭煩,j,刁難,11,1,10,0,9,9,1,space,0.367026809176,space,0.450441293322,space,0.633767791172,space,0.583777047696,space,0.467133426937,space,0.6170417104,space,0.483809771176,j,1,0.850371977964,SPR,17,A,,f,59.7255549138,001,2017_01_10_1510,
教授同情欺瞞群眾的主席,教授批評主席？,的,群眾,主席,教授,欺瞞,j,同情,11,1,16,0,10,10,7,space,0.433783896337,space,0.400477391786,space,0.517049565615,space,0.467029217056,space,0.650450451161,space,0.450509187642,space,1.35001770384,j,1,1.38372841642,SPR,17,A,,f,59.7255549138,001,2017_01_10_1510,
鄰居的奶奶一個字也不認識,鄰居的奶奶識字？,也,一個字,不認識,鄰居,奶奶,j,的,12,3,10,0,11,11,17,space,0.383824731611,space,0.433805211995,space,0.500474668117,space,0.483747797874,space,0.500447431443,space,0.534606167568,space,0.883819797429,j,1,0.983708127067,SPR,17,A,,f,59.7255549138,001,2017_01_10_1510,
舅舅斥責女婿讚賞的工程師,女婿讚賞工程師？,的,讚賞,工程師,舅舅,女婿,f,斥責,12,2,47,0,12,12,14,space,0.66714653212,space,0.45038524104,space,0.683924717834,space,0.650638344736,space,0.767165124111,space,1.06681156051,space,1.9170840654,f,1,1.68373287692,SPR,17,A,,f,59.7255549138,001,2017_01_10_1510,
局長辭退老闆害怕的藥劑師,局長辭退藥劑師？,的,害怕,藥劑師,局長,老闆,f,辭退,12,2,43,0,13,13,10,space,0.433696265298,space,0.467075400982,space,0.483660561573,space,0.467119216501,space,0.417044394593,space,0.467050927447,space,0.883759797802,f,1,1.25042818814,SPR,17,A,,f,59.7255549138,001,2017_01_10_1510,
旅客結識科學家佩服的商人,科學家佩服商人？,的,佩服,商人,旅客,科學家,f,結識,12,2,45,0,14,14,12,space,0.416849001065,space,0.400340813683,space,0.583733626911,space,0.583673232546,space,0.900507983701,space,0.517076407554,space,1.36705878266,f,1,1.70027974827,SPR,17,A,,f,59.7255549138,001,2017_01_10_1510,
經常跑步能夠提高身體素質,跑步不利於健康？,身體,提高,素質,經常,能夠,j,跑步,12,3,14,0,15,15,21,space,0.400447786704,space,0.616765001585,space,0.633741738702,space,0.533788277888,space,0.500180196253,space,0.433954026863,space,0.467058822136,j,1,1.13375851492,SPR,17,A,,f,59.7255549138,001,2017_01_10_1510,
心理師理解小金關心的助教,心理師理解助教？,的,關心,助教,心理師,小金,f,理解,12,2,41,0,16,16,8,space,0.433666660219,space,0.517099696885,space,0.717143196614,space,0.500422563176,space,0.450431819698,space,0.433842317028,space,0.733823093462,f,1,1.33383872494,SPR,17,A,,f,59.7255549138,001,2017_01_10_1510,
記者打壓邀請王總的政客,記者打壓政客？,的,王總,政客,記者,邀請,f,打壓,11,1,13,0,17,17,4,space,0.433852974857,space,0.516978513422,space,0.650308741511,space,0.767064466838,space,0.633819106646,space,0.683863928736,space,0.617250130163,f,1,0.800412813236,SPR,17,A,,f,59.7255549138,001,2017_01_10_1510,
李老師今天看上去很不舒服,老師今天不舒服？,很,上去,不舒服,李老師,看,f,今天,12,3,9,0,18,18,16,space,0.400467128689,space,0.400425681579,space,0.517116275729,space,0.500476641788,space,0.467128690127,space,0.533613410549,space,0.483697666607,f,1,1.93378330424,SPR,17,A,,f,59.7255549138,001,2017_01_10_1510,
我們週末約了一起去打籃球,我們不想打籃球？,打,一起去,籃球,我們,約了,j,週末,12,3,12,0,19,19,19,space,0.400439892017,space,0.450476424687,space,0.383705916556,space,0.416987158107,space,0.433685607471,space,0.417053473484,space,0.483647535339,j,1,0.950257939194,SPR,17,A,,f,59.7255549138,001,2017_01_10_1510,
姐姐想要舞者羨慕的造型師,舞者討厭造型師？,的,羨慕,造型師,姐姐,舞者,j,想要,12,2,48,0,20,20,15,space,0.483761218846,space,0.417053078751,space,0.467070664168,space,0.400422128967,space,0.417163209648,space,0.983757074133,space,1.26694427021,j,1,1.88370611392,SPR,17,A,,f,59.7255549138,001,2017_01_10_1510,
爺爺羨慕拜訪總統的老人,爺爺羨慕老人？,的,總統,老人,爺爺,拜訪,f,羨慕,11,1,11,0,21,21,2,space,0.333816619819,space,0.483710692841,space,0.500377958189,space,0.467000401444,space,0.500395326502,space,0.383778547686,space,0.850458424797,f,1,0.583767574069,SPR,17,A,,f,59.7255549138,001,2017_01_10_1510,
王總讚賞維護隊員的教練,王總讚賞教練？,的,隊員,教練,王總,維護,f,讚賞,11,1,15,0,22,22,6,space,0.450546292674,space,0.450448398542,space,0.500393747567,space,0.467088032481,space,0.767079466745,space,0.450350899147,space,0.733734278223,f,1,0.68374235054,SPR,17,A,,f,59.7255549138,001,2017_01_10_1510,
小郭嘲笑嫉妒哥哥的富商,小郭欣賞富商？,的,哥哥,富商,小郭,嫉妒,j,嘲笑,11,1,14,0,23,23,5,space,0.400497523238,space,0.467169347769,space,0.650617423813,space,0.850378688448,space,0.800461760302,space,1.0670306381,space,1.16707883517,j,1,1.28370192974,SPR,17,A,,f,59.7255549138,001,2017_01_10_1510,
