Sentences,Question,word5,word4,word6,word1,word3,Ans,word2,lenth,Type,ID,practicetrials.thisRepN,practicetrials.thisTrialN,practicetrials.thisN,practicetrials.thisIndex,key_resp_12.keys,key_resp_12.rt,Atests1.keys,Atests1.rt,Atests2.keys,Atests2.rt,Atests3.keys,Atests3.rt,Atests4.keys,Atests4.rt,Atests5.keys,Atests5.rt,Atests6.keys,Atests6.rt,key_resp_8.keys,key_resp_8.corr,key_resp_8.rt,expName,participant,version,Grade,Gender,frameRate,session,date,
小劉愛慕欽佩領隊的組長,小劉討厭組長？,的,領隊,組長,小劉,欽佩,j,愛慕,11,1,6,0,0,0,5,space,0.651657194467,space,0.500388019485,space,0.650398400874,space,0.650692869356,space,0.71708919869,space,0.650293797444,space,0.817060067624,j,1,2.95015785248,SPR,25,A,,m,60.0131710788,001,2017_01_16_0842,
小李暗戀船長招待的賓客,船長招待過賓客？,的,招待,賓客,小李,船長,f,暗戀,11,2,37,0,1,1,12,space,0.467253603681,space,0.50061854173,space,0.51706101498,space,0.850338954551,space,0.666935609304,space,0.833691221764,space,1.16710179058,f,1,1.08371865549,SPR,25,A,,m,60.0131710788,001,2017_01_16_0842,
警察逮捕了正在逃跑的罪犯,罪犯正在逃跑？,的,逃跑,罪犯,警察,正在,f,逮捕了,12,3,1,0,2,2,16,space,0.550573187269,space,0.517081146201,space,0.583737207795,space,0.500189865066,space,0.483711866123,space,0.483797522509,space,0.833734247324,f,1,1.48378252279,SPR,25,A,,m,60.0131710788,001,2017_01_16_0842,
村民擔心刺客襲擊的鐵匠,刺客襲擊了鐵匠？,的,襲擊,鐵匠,村民,刺客,f,擔心,11,2,39,0,3,3,14,space,0.467076764689,space,0.567048423094,space,0.500503675328,space,0.583707997794,space,0.483565026618,space,0.467132026883,space,1.18384110069,f,1,3.55076384179,SPR,25,A,,m,60.0131710788,001,2017_01_16_0842,
敵人搜查戰士掩護的村民,戰士沒掩護村民？,的,掩護,村民,敵人,戰士,j,搜查,11,2,40,0,4,4,15,space,0.417189617976,space,0.633745536587,space,0.666875215626,space,0.500438544899,space,0.633754615381,space,1.13379093051,space,0.933705116258,j,1,1.6003482307,SPR,25,A,,m,60.0131710788,001,2017_01_16_0842,
老師這次沒有劃考試的重點,老師劃了重點？,的,劃考試,重點,老師,沒有,j,這次,12,3,4,0,5,5,19,space,0.433756431143,space,0.467019134143,space,0.466881373402,space,0.500463412871,space,0.900386361609,space,0.550437005455,space,0.517138776762,j,1,1.68387741584,SPR,25,A,,m,60.0131710788,001,2017_01_16_0842,
名嘴毀謗賞識徐總的詩人,名嘴稱讚詩人？,的,徐總,詩人,名嘴,賞識,j,毀謗,11,1,8,0,6,6,7,space,0.366824848097,space,0.350370138214,space,0.467165184193,space,0.517090224996,space,0.550439768573,space,0.467046370497,space,0.717125513838,j,1,1.90065083063,SPR,25,A,,m,60.0131710788,001,2017_01_16_0842,
助教嫌棄局長愛慕的學生,助教嫌棄學生？,的,愛慕,學生,助教,局長,f,嫌棄,11,2,33,0,7,7,8,space,0.550144115885,space,0.633444357692,space,0.666998766072,space,0.800442334308,space,0.733646143606,space,0.55048397831,space,0.867173789302,f,1,1.81720967025,SPR,25,A,,m,60.0131710788,001,2017_01_16_0842,
傳統小說有很多精華的部分,小說沒有精華？,的,精華,部分,傳統小說,很多 ,j,有 ,12,3,6,0,8,8,21,space,0.450426268799,space,0.583691024396,space,0.600355730567,space,0.483721734374,space,1.96698005588,space,0.467045975762,space,0.433266176624,j,1,1.20021568041,SPR,25,A,,m,60.0131710788,001,2017_01_16_0842,
茶餐廳裡有很多好吃的甜點,餐廳裡有甜點？,的,好吃,甜點,茶餐廳裡,很多,f,有,12,3,5,0,9,9,20,space,0.350292376417,space,0.46694058289,space,0.383879942106,space,0.383744944498,space,0.467123342823,space,0.367437468856,space,0.683633472785,f,1,1.03384690323,SPR,25,A,,m,60.0131710788,001,2017_01_16_0842,
王董賞識表揚工人的廠長,王董賞識廠長？,的,工人,廠長,王董,表揚,f,賞識,11,1,3,0,10,10,2,space,0.50044841315,space,0.500453544635,space,0.45043653177,space,0.483862258217,space,0.683813469601,space,0.467330181287,space,0.633715142394,f,1,5.25067123816,SPR,25,A,,m,60.0131710788,001,2017_01_16_0842,
究竟存不存在外星人仍是個謎,外星人是個謎？,是個,仍,謎,究竟,外星人,f,存不存在,13,3,3,0,11,11,18,space,0.550308323509,space,0.416876597184,space,0.35054539828,space,0.367312734219,space,0.383562974021,space,0.333851087358,space,0.500085261665,f,1,1.61705990974,SPR,25,A,,m,60.0131710788,001,2017_01_16_0842,
叔叔有很多棟房子和別墅,叔叔沒有房子？,和,房子,別墅,叔叔,很多棟,j,有,11,3,8,0,12,12,23,space,0.350636975607,space,0.417025015602,space,0.533984663954,space,0.350365796185,space,0.433694853273,space,0.600425203025,space,0.383787970059,j,1,0.967114658764,SPR,25,A,,m,60.0131710788,001,2017_01_16_0842,
老師調查傷害弟弟的同學,同學調查老師？,的,弟弟,同學,老師,傷害,j,調查,11,1,4,0,13,13,3,space,0.333717668662,space,0.333956480245,space,0.417008436969,space,0.467076764689,space,0.666938372407,space,0.400572674102,space,0.666975871733,j,1,3.73388416572,SPR,25,A,,m,60.0131710788,001,2017_01_16_0842,
村民援助舉薦小潘的水手,村民援助水手？,的,小潘,水手,村民,舉薦,f,援助,11,1,7,0,14,14,6,space,0.350335796713,space,0.383626130802,space,0.650520767129,space,2.15033366517,space,0.533563881909,space,0.467061370233,space,0.517074435804,f,1,1.48331003112,SPR,25,A,,m,60.0131710788,001,2017_01_16_0842,
商人質疑小陳賄賂的企劃員,商人質疑小陳？,的,賄賂,企劃員,商人,小陳,j,質疑,12,2,36,0,15,15,11,space,0.383710208262,space,0.433654985565,space,0.400155049894,space,0.367131553212,space,0.50063748876,space,0.416983963703,space,2.31702138409,j,1,2.23387666585,SPR,25,A,,m,60.0131710788,001,2017_01_16_0842,
強盜綁架主人誣陷的管家,強盜綁架主人？,的,誣陷,管家,強盜,主人,j,綁架,11,2,34,0,16,16,9,space,0.383800601398,space,0.450520214508,space,0.467057422939,space,0.650319454886,space,0.900518596114,space,1.48373831304,space,1.36697247706,j,1,1.66710889571,SPR,25,A,,m,60.0131710788,001,2017_01_16_0842,
外婆檢舉嬸嬸救治的鄰居,嬸嬸沒救鄰居？,的,救治,鄰居,外婆,嬸嬸,j,檢舉,11,2,38,0,17,17,13,space,0.483811732789,space,0.4001511026,space,0.483463186305,space,0.550392400968,space,1.70035067803,space,0.517176670823,space,0.667107316796,j,1,1.83354201388,SPR,25,A,,m,60.0131710788,001,2017_01_16_0842,
證人揭發搶匪指使的殺手,證人揭發殺手？,的,指使,殺手,證人,搶匪,f,揭發,11,2,35,0,18,18,10,space,0.433498672515,space,0.500702224468,space,0.667080080428,space,0.800961404093,space,0.583692998043,space,0.483776601832,space,2.5337845359,f,1,2.15043550548,SPR,25,A,,m,60.0131710788,001,2017_01_16_0842,
小紅取笑崇拜小張的作家,小紅取笑作家？,的,小張,作家,小紅,崇拜,f,取笑,11,1,1,0,19,19,0,space,0.383786391132,space,0.433638801624,space,0.750438742267,space,0.967185315414,space,0.666802585314,space,0.600447702644,space,1.13404829442,f,1,1.3836604723,SPR,25,A,,m,60.0131710788,001,2017_01_16_0842,
粉絲大罵羞辱小周的導演,粉絲大罵導演？,的,小周,導演,粉絲,羞辱,f,大罵,11,1,5,0,20,20,4,space,0.467177420825,space,0.650388532624,space,0.49997671094,space,0.467155710678,space,0.500217890891,space,0.433628933388,space,0.733693116461,f,1,0.76708726451,SPR,25,A,,m,60.0131710788,001,2017_01_16_0842,
公園裡擠滿了玩鬧的小孩,公園裡有小孩？,的,玩鬧,小孩,公園裡,滿了,f,擠,11,3,7,0,21,21,22,space,0.367112211447,space,0.417370798983,space,0.566851847616,space,0.48370436627,space,0.717069462204,space,0.63374908916,space,0.500343414998,f,1,0.883835337634,SPR,25,A,,m,60.0131710788,001,2017_01_16_0842,
司機們大部分都比較好說話,司機討厭說話？,好,比較,說話,司機們,都,j,大部分,12,3,2,0,22,22,17,space,0.400389519447,space,0.483612394208,space,0.667239551301,space,0.450352454311,space,0.500372625,space,0.733356411874,space,0.533949138262,j,1,2.7171038037,SPR,25,A,,m,60.0131710788,001,2017_01_16_0842,
校長相信厭惡房東的小孩,小孩相信校長？,的,房東,小孩,校長,厭惡,j,相信,11,1,2,0,23,23,1,space,0.467065712262,space,0.367144184565,space,0.533681511399,space,0.750388216838,space,0.650499451716,space,0.733783904332,space,2.85044276851,f,0,5.63392632289,SPR,25,A,,m,60.0131710788,001,2017_01_16_0842,
參加國際會議是令人高興的事,參會不值得高興？,的,令人高興,事,參加,是,j,國際會議,13,3,28,0,0,0,19,space,2.00081788031,space,0.883789548985,space,0.866921951631,space,0.717144855604,space,0.950291665911,space,0.767141737233,space,0.533624670308,j,1,1.80078101254,SPR,25,A,,m,60.0131710788,001,2017_01_16_0842,
家長們準備了豐盛的晚餐,晚餐沒有東西吃？,的,豐盛,晚餐,家長們,了,j,準備,11,3,32,0,1,1,23,space,0.483760023184,space,0.467047554688,space,0.583682735072,space,0.533683090325,space,0.583894310286,space,0.433787614791,space,0.583701682102,j,1,1.40046846544,SPR,25,A,,m,60.0131710788,001,2017_01_16_0842,
朋友毆打碰見駕駛員的盜賊,朋友幫助盜賊？,的,駕駛員,盜賊,朋友,碰見,j,毆打,12,1,32,0,2,2,7,space,0.417109093076,space,0.550329244201,space,0.817062830742,space,0.567018423622,space,0.833810035459,space,0.45061179185,space,0.633726589556,j,1,1.8834702125,SPR,25,A,,m,60.0131710788,001,2017_01_16_0842,
今天爸爸買了一籃新鮮的水果,爸爸買了水果？,的,新鮮,各種水果,今天,買了,f,爸爸,13,3,27,0,3,3,18,space,0.367203788774,space,0.533773483461,space,0.5999902107,space,0.533933743805,space,0.61709819852,space,0.467196762591,space,0.483905283763,f,1,0.866829584847,SPR,25,A,,m,60.0131710788,001,2017_01_16_0842,
法官偏袒代理商詆毀的律師,代理商詆毀律師？,的,詆毀,律師,法官,代理商,f,偏袒,12,2,61,0,4,4,12,space,0.467268208697,space,0.417031726029,space,0.50043459759,space,0.533687827075,space,0.600572437281,space,0.467081896189,space,1.30045141309,f,1,6.01721574909,SPR,25,A,,m,60.0131710788,001,2017_01_16_0842,
外婆感激協助叔叔的警察,外婆感激警察？,的,叔叔,警察,外婆,協助,f,感激,11,1,31,0,5,5,6,space,0.433828271969,space,0.650566950528,space,0.550385295835,space,0.766907662415,space,0.667291260921,space,1.03350980391,space,0.800449834176,f,1,1.0003461781,SPR,25,A,,m,60.0131710788,001,2017_01_16_0842,
政府豁免檢舉犯人的同伴,同伴豁免政府？,的,犯人,同伴,政府,檢舉,j,豁免,11,1,26,0,6,6,1,space,0.533757694284,space,0.48378962792,space,0.716991305686,space,1.15056576634,space,1.15024011419,space,1.05048082047,space,0.667062712324,j,1,2.21702485773,SPR,25,A,,m,60.0131710788,001,2017_01_16_0842,
律師帮助惹怒上尉的服務員,律師無視服務員？,的,上尉,服務員,律師,惹怒,j,幫助,12,1,30,0,7,7,5,space,0.600601252561,space,1.15063247569,space,0.86704905465,space,0.617029120796,space,0.483707918844,space,0.717303142286,space,1.98343989725,j,1,1.93337670098,SPR,25,A,,m,60.0131710788,001,2017_01_16_0842,
助手賄賂批評小吳的評論家,助手賄賂評論家？,的,小吳,評論家,助手,批評,f,賄賂,12,1,29,0,8,8,4,space,0.383670735275,space,0.517004963331,space,0.517093777555,space,0.733509961792,space,0.817039541682,space,0.483739497227,space,1.65024485094,f,1,1.80036970401,SPR,25,A,,m,60.0131710788,001,2017_01_16_0842,
弟弟花光了所有的零花錢,弟弟還有零花錢？,的,所有,零花錢,弟弟,光了,j,花,11,3,30,0,9,9,21,space,0.500453544635,space,0.467031765496,space,0.567000660769,space,0.517071277951,space,0.450485083551,space,0.400404519183,space,0.783481185994,j,1,1.21710340897,SPR,25,A,,m,60.0131710788,001,2017_01_16_0842,
群眾反感主播討好的發言人,群眾反感發言人？,的,討好,發言人,群眾,主播,f,反感,12,2,57,0,10,10,8,space,0.433782088585,space,0.600457570879,space,0.450420347857,space,0.5003923615,space,0.617116750829,space,0.884020071229,space,0.617042146885,f,1,1.06702276565,SPR,25,A,,m,60.0131710788,001,2017_01_16_0842,
店長錯怪熟悉顧客的職工,店長錯怪職工？,的,顧客,職工,店長,熟悉,f,錯怪,11,1,25,0,11,11,0,space,0.33383885074,space,0.983576079059,space,0.333795035724,space,1.01690707031,space,0.767045423141,space,0.400652804281,space,0.733821403672,f,1,1.5006816985,SPR,25,A,,m,60.0131710788,001,2017_01_16_0842,
鄰居尊敬信任市民的委員,委員尊敬鄰居？,的,市民,委員,鄰居,信任,j,尊敬,11,1,28,0,12,12,3,space,0.400497675422,space,0.600527438073,space,0.617068988518,space,0.583918388817,space,0.900407677022,space,0.600357704228,space,1.11704609418,j,1,1.68371518186,SPR,25,A,,m,60.0131710788,001,2017_01_16_0842,
鄉村的風景迷人且空氣新鮮,鄉村的風景很好？,空氣,且,新鮮,鄉村的,迷人,f,風景,12,3,29,0,13,13,20,space,0.383759549499,space,0.483604499619,space,0.517078777833,space,0.367049844121,space,0.400445965817,space,0.500371835558,space,0.467202288797,f,1,1.15075602615,SPR,25,A,,m,60.0131710788,001,2017_01_16_0842,
上司懲罰小明責罵的管理員,上司懲罰管理員？,的,責罵,管理員,上司,小明,f,懲罰,12,2,59,0,14,14,10,space,0.383793496279,space,0.650460373465,space,0.664260524893,space,0.767263708767,space,0.600374677611,space,0.48403475518,space,1.10058348972,f,1,1.10052546443,SPR,25,A,,m,60.0131710788,001,2017_01_16_0842,
大叔喜歡親近孩子的阿姨,大叔喜歡阿姨？,的,孩子,阿姨,大叔,親近,f,喜歡,11,1,27,0,15,15,2,space,0.383648235671,space,0.483663709092,space,0.550366348805,space,0.500963140905,space,0.683616104667,space,0.600657304196,space,0.633684748187,f,1,1.10055664807,SPR,25,A,,m,60.0131710788,001,2017_01_16_0842,
導演無視業務員撞見的藝人,業務員撞見藝人？,的,撞見,藝人,導演,業務員,f,無視,12,2,63,0,16,16,14,space,0.333786351664,space,0.417110277267,space,0.50045393937,space,0.533657038148,space,0.516970227094,space,0.533750589137,space,0.883731523674,f,1,8.81724638013,SPR,25,A,,m,60.0131710788,001,2017_01_16_0842,
孩子們快樂地享受著陽光,孩子們喜歡陽光？,著,享受,陽光,孩子們,的,f,快樂,11,3,31,0,17,17,22,space,0.367099185358,space,0.667114816664,space,0.600258232298,space,0.700634094086,space,0.649982750299,space,0.565912390492,space,1.15067550125,f,1,1.00038841421,SPR,25,A,,m,60.0131710788,001,2017_01_16_0842,
他一邊寫作業一邊看著電視,他沒在看電視？,看著,一邊,電視,他,寫作業,j,一邊,12,3,26,0,18,18,17,space,0.36707826468,space,0.417031726029,space,0.466996634525,space,0.5002972316,space,0.467022291981,space,0.500412097987,space,0.633748299704,j,1,1.31690809662,SPR,25,A,,m,60.0131710788,001,2017_01_16_0842,
小明認識大姑姑捧紅的明星,小明認識大姑姑？,的,捧紅,明星,小明,大姑姑,j,認識,12,2,60,0,19,19,11,space,0.383594947139,space,0.400348072813,space,0.500086445856,space,0.433618275667,space,0.633769615117,space,0.533730852636,space,0.767009897449,f,0,4.26719463104,SPR,25,A,,m,60.0131710788,001,2017_01_16_0842,
教授排斥小林支持的研究員,小林不支持研究員？,的,支持,研究員,教授,小林,j,排斥,12,2,64,0,20,20,15,space,1.71690604402,space,2.40045780771,space,0.633611723155,space,0.800341678187,space,0.850443163232,space,0.467298602889,space,0.950425874064,f,0,1.51700496333,SPR,25,A,,m,60.0131710788,001,2017_01_16_0842,
聖誕節是個令人快樂的節日,聖誕節讓人快樂？,的,快樂,節日,聖誕節,令人,f,是個,12,3,25,0,21,21,16,space,0.450430610828,space,2.11729516875,space,0.60039678248,space,0.750825972282,space,0.716992489863,space,0.483838179702,space,0.51693864871,f,1,1.18374912864,SPR,25,A,,m,60.0131710788,001,2017_01_16_0842,
海關扣留空服員侮辱的旅客,海關扣留空服員？,的,侮辱,旅客,海關,空服員,j,扣留,12,2,58,0,22,22,9,space,0.367017476266,space,0.400389914183,space,0.483813706451,space,0.616882676026,space,0.733716800256,space,0.500158286683,space,0.500303152556,j,1,1.38385586359,SPR,25,A,,m,60.0131710788,001,2017_01_16_0842,
警衛攔住治療師責備的婦女,治療師沒責備婦女？,的,責備,婦女,警衛,治療師,j,攔住,12,2,62,0,23,23,13,space,0.400428597699,space,0.367048265194,space,0.517132461086,space,0.533770325637,space,0.533925454482,space,0.517172723528,space,0.483816074819,f,0,2.75040282184,SPR,25,A,,m,60.0131710788,001,2017_01_16_0842,
媽媽討厭小白忽視的企業家,小白忽視企業家？,的,忽視,企業家,媽媽,小白,f,討厭,12,2,55,0,0,0,14,space,0.73426863263,space,0.500478017886,space,0.600415334775,space,0.966777164722,space,0.550547529827,space,0.43395182243,space,2.66736704906,f,1,1.65015564198,SPR,25,A,,m,60.0131710788,001,2017_01_16_0842,
青年佩服小謝督促的技術員,青年佩服小謝？,的,督促,技術員,青年,小謝,j,佩服,12,2,50,0,1,1,9,space,0.400686751047,space,0.433841692793,space,0.583770365105,space,0.733787851641,space,0.633569092344,space,0.450449557859,space,0.867194315259,j,1,2.88378599641,SPR,25,A,,m,60.0131710788,001,2017_01_16_0842,
小張欽佩隊長袒護的消防員,校長欽佩隊長？,的,袒護,消防員,小張,隊長,j,欽佩,12,2,52,0,2,2,11,space,0.450344954443,space,0.450390348386,space,0.783774470285,space,1.3172369066,space,0.5169662798,space,0.48374186561,space,1.50042472935,j,1,10.3171315137,SPR,25,A,,m,60.0131710788,001,2017_01_16_0842,
治療師開導小崔照顧的飛行員,治療師開導飛行員？,的,照顧,飛行員,治療師,小崔,f,開導,13,2,49,0,3,3,8,space,0.333713326632,space,0.417031331293,space,0.533679537752,space,0.600407440186,space,0.483669630034,space,0.767050554627,space,0.63352172474,j,0,3.23378706219,SPR,25,A,,m,60.0131710788,001,2017_01_16_0842,
如果天氣好的話我就去野餐,天氣好也不野餐？,就,我,去野餐,如果,的話,j,天氣好,12,3,24,0,4,4,23,space,0.35004014404,space,0.417173039314,space,0.483438318319,space,0.417039225882,space,0.43370195842,space,0.667115211385,space,0.717577084826,j,1,3.58396773004,SPR,25,A,,m,60.0131710788,001,2017_01_16_0842,
科學家協助熟識表姐的院士,科學家排斥院士？,的,表姐,院士,科學家 ,熟識,j,協助,12,1,24,0,5,5,7,space,0.350626317901,space,0.567087896081,space,0.566872373558,space,0.71707498841,space,0.883775338691,space,0.950166536539,space,0.683911757355,j,1,2.11713885571,SPR,25,A,,m,60.0131710788,001,2017_01_16_0842,
贊助商支持貴族拉攏的青年,貴族排斥青年？,的,拉攏,青年,贊助商,貴族,j,支持,12,2,54,0,6,6,13,space,0.383744549777,space,0.533799930374,space,0.46696900345,space,0.366648798561,space,0.517019963081,space,0.467123342823,space,0.733302728622,j,1,1.91758040055,SPR,25,A,,m,60.0131710788,001,2017_01_16_0842,
大腦裡的奧秘等著你們去解開,大腦里有奧妙？,你們,等著,去解開,大腦裡,奧秘,f,的,13,3,19,0,7,7,18,space,0.400457018259,space,0.483722918565,space,0.433804193453,space,0.483832653466,space,0.416691863589,space,0.333952532936,space,0.400369782961,f,1,2.41729658977,SPR,25,A,,m,60.0131710788,001,2017_01_16_0842,
雨後有時會見到漂亮的彩虹,雨後可能現彩虹？,的,漂亮,彩虹,雨後,會見到,f,有時,12,3,21,0,8,8,20,space,0.400453465685,space,0.40046728123,space,0.383755207469,space,0.400403334992,space,0.36708734346,space,0.316974016503,space,0.433929322826,f,1,1.03371269506,SPR,25,A,,m,60.0131710788,001,2017_01_16_0842,
外婆批評辱罵農夫的木匠,外婆批評木匠？,的,農夫,木匠,外婆,辱罵,f,批評,11,1,19,0,9,9,2,space,0.600468623321,space,0.583782207003,space,0.450436926505,space,0.450350085943,space,0.467160842163,space,0.800130497708,space,0.650524319703,j,0,2.4671667631,SPR,25,A,,m,60.0131710788,001,2017_01_16_0842,
同伴欺負取笑小郭的廚師,同伴關心廚師？,的,小郭,廚師,同伴,取笑,j,欺負,11,1,22,0,10,10,5,space,0.350436058114,space,0.367173394581,space,0.667054028265,space,1.5837715493,space,0.933742220863,space,0.666885478597,space,0.633873429077,j,1,2.16708797503,SPR,25,A,,m,60.0131710788,001,2017_01_16_0842,
妹妹的個性一向是冷冰冰的,妹妹個性熱情？,是,一向,冷冰冰的,妹妹,個性,j,的,11,3,20,0,11,11,19,space,0.467233867195,space,0.516993910904,space,0.450718368913,space,0.633906191666,space,0.383665603789,space,0.433856692529,space,0.833781614914,j,1,2.81733677327,SPR,25,A,,m,60.0131710788,001,2017_01_16_0842,
小王關注航海家資助的演員,小王關注演員？,的,資助,演員,小王,航海家,f,關注,12,2,51,0,12,12,10,space,0.350201588546,space,0.483731602624,space,0.433779325482,space,0.767098711673,space,0.650459978729,space,0.467501099323,space,0.500457097209,f,1,3.95052968804,SPR,25,A,,m,60.0131710788,001,2017_01_16_0842,
鄰居告發砍傷表弟的疑犯,鄰居告發疑犯？,的,表弟,疑犯,鄰居,砍傷,f,告發,11,1,21,0,13,13,4,space,0.333853850476,space,0.400983587926,space,0.500615383891,space,0.40036346727,space,0.4006847774,space,0.417010805337,space,0.550358454202,f,1,0.80026391639,SPR,25,A,,m,60.0131710788,001,2017_01_16_0842,
偵探跟蹤迷戀老婆的編輯,偵探跟蹤編輯？,的,老婆,編輯,偵探,迷戀,f,跟蹤,11,1,17,0,14,14,0,space,0.33399476904,space,0.300385098468,space,0.483761996831,space,0.600429545055,space,0.467090580249,space,0.600479675748,space,0.85032869158,f,1,1.66583589184,SPR,25,A,,m,60.0131710788,001,2017_01_16_0842,
阿姨看見交警驅趕的行政人員,交警驅趕行政人員？,的,驅趕,行政人員,阿姨,交警,f,看見,13,2,53,0,15,15,12,space,0.383608367949,space,0.733912586278,space,0.467109922,space,0.450376532826,space,0.433731168421,space,0.967085054028,space,0.733555355735,f,1,1.83379227261,SPR,25,A,,m,60.0131710788,001,2017_01_16_0842,
哥哥的體育特長是打羽毛球,哥哥不會打羽毛球？,是,特長,打羽毛球,哥哥,體育,j,的,12,3,18,0,16,16,17,space,0.367150105507,space,0.416835939992,space,0.567098159052,space,0.733755878522,space,0.550402663939,space,0.683771233496,space,0.567138421509,j,1,1.00030196836,SPR,25,A,,m,60.0131710788,001,2017_01_16_0842,
主任指責嘲笑上司的會計,主任指責會計？,的,上司,會計,主任,嘲笑,f,指責,11,1,23,0,17,17,6,space,0.300421808352,space,0.333839640196,space,0.45045153152,space,0.483501475101,space,0.550291350126,space,0.433743405054,space,0.667097053811,f,1,1.75051808298,SPR,25,A,,m,60.0131710788,001,2017_01_16_0842,
夏天是個非常美麗的季節,夏天是個好季節？,的,美麗,季節,夏天,非常,f,是個,11,3,23,0,18,18,22,space,0.350672501299,space,0.35008238013,space,0.400508333143,space,0.333662011748,space,0.383677050952,space,0.36714813186,space,0.33376306259,f,1,1.51741666661,SPR,25,A,,m,60.0131710788,001,2017_01_16_0842,
老闆責罵同情雇主的技工,技工責罵老闆？,的,雇主,技工,老闆,同情,j,責罵,11,1,18,0,19,19,1,space,0.367056554533,space,0.350250929783,space,1.05025977173,space,0.667308629025,space,0.616834518965,space,1.08354023758,space,0.567249340602,j,1,1.45033469146,SPR,25,A,,m,60.0131710788,001,2017_01_16_0842,
妹妹迷戀結識表哥的中醫師,中醫師迷戀妹妹？,的,表哥,中醫師,妹妹,結識,j,迷戀,12,1,20,0,20,20,3,space,0.367150894963,space,0.517090224996,space,0.417036462779,space,0.500412887457,space,0.433805377645,space,0.416791730255,space,1.08379010161,j,1,1.33369359013,SPR,25,A,,m,60.0131710788,001,2017_01_16_0842,
刑警緝拿政府輕視的逃亡者,政府重視逃亡者？,的,輕視,逃亡者,刑警,政府,j,緝拿,12,2,56,0,21,21,15,space,0.300461281338,space,0.467066501718,space,0.450522188155,space,0.417154487004,space,0.417023436705,space,0.533778220226,space,1.11705833081,j,1,2.200375546,SPR,25,A,,m,60.0131710788,001,2017_01_16_0842,
有人明年要在高雄舉辦演唱會,明年有演唱會？,舉辦,高雄,演唱會,有人,要在,f,明年,13,3,17,0,22,22,16,space,0.367185631199,space,0.417102777399,space,0.433806956571,space,0.650608397162,space,0.467015581569,space,0.400348467549,space,0.367256287849,f,1,1.41697054288,SPR,25,A,,m,60.0131710788,001,2017_01_16_0842,
許多古生物學家著迷於恐龍,學者討厭恐龍？,於,著迷,恐龍,許多,生物學家,j,古,12,3,22,0,23,23,21,space,0.367062870209,space,0.40031136293,space,0.500556569139,space,0.617014515796,space,0.466956372082,space,0.483782917509,space,0.517121803379,j,1,1.08384654796,SPR,25,A,,m,60.0131710788,001,2017_01_16_0842,
新發芽的種子需要很多肥料,種子需要肥料？,很多,需要,肥料,新發芽,種子,f,的,12,3,13,0,0,0,20,space,0.650586292293,space,0.615905324827,space,0.401451342841,space,0.466929135728,space,0.41704238372,space,0.517096935393,space,0.833721221235,f,1,0.867113395638,SPR,25,A,,m,60.0131710788,001,2017_01_16_0842,
旅客結識科學家佩服的商人,科學家佩服商人？,的,佩服,商人,旅客,科學家,f,結識,12,2,45,0,1,1,12,space,0.38399204539,space,0.416900675686,space,0.500430650311,space,1.05047292587,space,0.517156144881,space,0.61710846152,space,0.917091330222,f,1,2.11700227918,SPR,25,A,,m,60.0131710788,001,2017_01_16_0842,
姐姐想要舞者羨慕的造型師,舞者討厭造型師？,的,羨慕,造型師,姐姐,舞者,j,想要,12,2,48,0,2,2,15,space,0.333774509767,space,0.300554042871,space,0.350403295524,space,0.31707072533,space,0.433652617168,space,0.483923046617,space,0.917045936294,j,1,2.56735591766,SPR,25,A,,m,60.0131710788,001,2017_01_16_0842,
李老師今天看上去很不舒服,老師今天不舒服？,很,上去,不舒服,李老師,看,f,今天,12,3,9,0,3,3,16,space,0.317287037309,space,0.38375599694,space,0.333797798827,space,0.350268692637,space,0.333651748762,space,0.300591936932,space,0.450139694905,f,1,0.800395361453,SPR,25,A,,m,60.0131710788,001,2017_01_16_0842,
舅舅斥責女婿讚賞的工程師,女婿讚賞工程師？,的,讚賞,工程師,舅舅,女婿,f,斥責,12,2,47,0,4,4,14,space,0.316745862627,space,0.300296284244,space,0.317161118481,space,0.333668327425,space,0.367200630935,space,0.367204578244,space,0.850478294189,f,1,1.11733187862,SPR,25,A,,m,60.0131710788,001,2017_01_16_0842,
室友鼓足勇氣參加了圍棋比賽,室友參加了比賽？,圍棋,參加了,比賽,室友,勇氣,f,鼓足,13,3,11,0,5,5,18,space,0.267022528817,space,1.01718772326,space,0.351132361626,space,0.402772503745,space,0.333494646286,space,0.300404834969,space,0.350538293147,f,1,0.767147263454,SPR,25,A,,m,60.0131710788,001,2017_01_16_0842,
攝影師誣陷認識張三的司機,攝影師誣陷司機？,的,張三,司機,攝影師,認識,f,誣陷,12,1,9,0,6,6,0,space,0.283701839988,space,0.467293471404,space,0.384706901226,space,0.367471415637,space,0.60063243621,space,0.433814061704,space,1.06718776273,f,1,0.883709418806,SPR,25,A,,m,60.0131710788,001,2017_01_16_0842,
經常跑步能夠提高身體素質,跑步不利於健康？,身體,提高,素質,經常,能夠,j,跑步,12,3,14,0,7,7,21,space,0.350387111597,space,0.333803325047,space,0.300328652098,space,0.349129502196,space,0.351661694382,space,0.383688103393,space,0.300527201238,j,1,1.06794840722,SPR,25,A,,m,60.0131710788,001,2017_01_16_0842,
我們週末約了一起去打籃球,我們不想打籃球？,打,一起去,籃球,我們,約了,j,週末,12,3,12,0,8,8,19,space,0.317165065775,space,0.349845147473,space,0.350669343461,space,0.333880692109,space,0.350545793015,space,0.583826416754,space,0.383716523938,j,1,1.06685540019,SPR,25,A,,m,60.0131710788,001,2017_01_16_0842,
局長辭退老闆害怕的藥劑師,局長辭退藥劑師？,的,害怕,藥劑師,局長,老闆,f,辭退,12,2,43,0,9,9,10,space,0.4171371189,space,0.334069372984,space,0.333831350872,space,0.382473914273,space,0.68372268173,space,0.401184900169,space,1.28332526768,f,1,1.14927855218,SPR,25,A,,m,60.0131710788,001,2017_01_16_0842,
小郭嘲笑嫉妒哥哥的富商,小郭欣賞富商？,的,哥哥,富商,小郭,嫉妒,j,嘲笑,11,1,14,0,10,10,5,space,0.333558592523,space,0.350441189585,space,0.400436887037,space,0.417105935237,space,0.383471396693,space,0.400421887301,space,0.432705660191,f,0,4.05318669383,SPR,25,A,,m,60.0131710788,001,2017_01_16_0842,
王總讚賞維護隊員的教練,王總讚賞教練？,的,隊員,教練,王總,維護,f,讚賞,11,1,15,0,11,11,6,space,0.383258637288,space,0.550329638936,space,0.516720363099,space,0.601736890429,space,0.700485675654,space,0.48376081264,space,0.383732313145,f,1,7.30204572708,SPR,25,A,,m,60.0131710788,001,2017_01_16_0842,
鄰居的奶奶一個字也不認識,鄰居的奶奶識字？,也,一個字,不認識,鄰居,奶奶,j,的,12,3,10,0,12,12,17,space,0.383754812749,space,0.700455281447,space,0.550334375686,space,0.950217851423,space,0.600406255995,space,0.383758760043,space,0.500389203662,j,1,1.31732572084,SPR,25,A,,m,60.0131710788,001,2017_01_16_0842,
警察逮捕兇嫌唆使的槍手,警察逮捕兇嫌？,的,唆使,槍手,警察,兇嫌,j,逮捕,11,2,42,0,13,13,9,space,0.334055162704,space,0.417246459081,space,0.467158868516,space,0.51699943711,space,0.550379769615,space,0.600342309743,space,0.550412137469,f,0,0.83470291445,SPR,25,A,,m,60.0131710788,001,2017_01_16_0842,
院長刁難厭煩醫生的病人,病人刁難院長？,的,醫生,病人,院長,厭煩,j,刁難,11,1,10,0,14,14,1,space,0.367252735276,space,1.11703504175,space,0.533848087405,space,0.600506122661,space,0.800549700827,space,0.466998213451,space,1.21709788275,j,1,1.23382258786,SPR,25,A,,m,60.0131710788,001,2017_01_16_0842,
心理師理解小金關心的助教,心理師理解助教？,的,關心,助教,心理師,小金,f,理解,12,2,41,0,15,15,8,space,0.40040649283,space,0.617143197742,space,0.517106803643,space,0.350323560095,space,0.367299313395,space,0.350329086301,space,0.483861863497,f,1,2.53409242522,SPR,25,A,,m,60.0131710788,001,2017_01_16_0842,
小林懷疑廣播員攔住的大叔,廣播員沒攔大叔？,的,攔住,大叔,小林,廣播員,j,懷疑,12,2,46,0,16,16,13,space,0.41707080428,space,0.467092948616,space,0.567072106889,space,0.583977598289,space,0.883445739251,space,0.367189973229,space,0.43385313997,j,1,2.35047671528,SPR,25,A,,m,60.0131710788,001,2017_01_16_0842,
叔叔推薦欣賞小王的村長,村長推薦叔叔？,的,小王,村長,叔叔,欣賞,j,推薦,11,1,12,0,17,17,3,space,0.317209275527,space,0.400635041427,space,0.317095593302,space,0.583822864181,space,0.850116721616,space,0.58386510027,space,0.667142842489,j,1,3.25037440129,SPR,25,A,,m,60.0131710788,001,2017_01_16_0842,
教授同情欺瞞群眾的主席,教授批評主席？,的,群眾,主席,教授,欺瞞,j,同情,11,1,16,0,18,18,7,space,0.383811653839,space,0.483777391302,space,0.400426624052,space,0.550446084249,space,0.533650722471,space,0.450529293303,space,0.533738747239,j,1,2.38343389735,SPR,25,A,,m,60.0131710788,001,2017_01_16_0842,
記者打壓邀請王總的政客,記者打壓政客？,的,王總,政客,記者,邀請,f,打壓,11,1,13,0,19,19,4,space,0.367205762435,space,0.366949582734,space,0.617102145829,space,0.567150658142,space,0.583884442036,space,0.683785049056,space,0.667166526269,f,1,3.45025495603,SPR,25,A,,m,60.0131710788,001,2017_01_16_0842,
這個問題同學們一起討論過,問題沒有被討論？,一起,們,討論過,這個,同學,j,問題,12,3,16,0,20,20,23,space,0.433723273818,space,0.750425321443,space,0.417139487268,space,0.383656525009,space,0.367073527916,space,0.36705418615,space,0.400190970307,j,1,1.96728084004,SPR,25,A,,m,60.0131710788,001,2017_01_16_0842,
明星資助在地人尊敬的導遊,明星資助在地人？,的,尊敬,導遊,明星,在地人,j,資助,12,2,44,0,21,21,11,space,0.333807667077,space,0.36697800328,space,0.333776088679,space,0.367098790637,space,0.450483109904,space,0.400412019051,space,0.5339522961,j,1,1.65037392761,SPR,25,A,,m,60.0131710788,001,2017_01_16_0842,
為了進步就要不斷嚐試新方法,進步需要新方法？,嘗試,不斷,新方法,為了,就要,f,進步,13,3,15,0,22,22,22,space,0.3506117129,space,0.383654946083,space,0.416987910998,space,0.367022607752,space,0.350341717654,space,0.333804509224,space,0.366993792471,f,1,1.03373637886,SPR,25,A,,m,60.0131710788,001,2017_01_16_0842,
爺爺羨慕拜訪總統的老人,爺爺羨慕老人？,的,總統,老人,爺爺,拜訪,f,羨慕,11,1,11,0,23,23,2,space,0.417130013768,space,0.350366190905,space,0.350221325047,space,0.350538687868,space,0.533742694548,space,0.383776128161,space,0.467197946768,f,1,2.10058427916,SPR,25,A,,m,60.0131710788,001,2017_01_16_0842,
