Sentences,Question,word5,word4,word6,word1,word3,Ans,word2,lenth,Type,ID,practicetrials.thisRepN,practicetrials.thisTrialN,practicetrials.thisN,practicetrials.thisIndex,key_resp_12.keys,Atests1.keys,Atests1.rt,Atests2.keys,Atests2.rt,Atests3.keys,Atests3.rt,Atests4.keys,Atests4.rt,Atests5.keys,Atests5.rt,Atests6.keys,Atests6.rt,key_resp_8.keys,key_resp_8.corr,key_resp_8.rt,key_resp_12.rt,expName,participant,version,Grade,Gender,frameRate,session,date,
妹妹的個性一向是冷冰冰的,妹妹個性熱情？,是,一向,冷冰冰的,妹妹,個性,j,的,11,3,20,0,0,0,19,None,space,2.06707932038,space,0.367159569569,space,0.38719344554,space,0.33718474168,space,0.397181765395,space,0.648692111936,j,1,1.07045073359,,SPR,39,A,,f,50.0085671705,001,2017_01_20_1109,
夏天是個非常美麗的季節,夏天是個好季節？,的,美麗,季節,夏天,非常,f,是個,11,3,23,0,1,1,22,space,space,0.407232453039,space,0.350420923367,space,0.30391586822,space,0.30724386082,space,0.373952527059,space,0.351022890953,f,1,0.970691875884,0.500533876169,SPR,39,A,,f,50.0085671705,001,2017_01_20_1109,
主任指責嘲笑上司的會計,主任指責會計？,的,上司,會計,主任,嘲笑,f,指責,11,1,23,0,2,2,6,space,space,0.5272280794,space,0.393434961252,space,0.346695040063,space,0.483678783779,space,1.09245669485,space,2.64699120812,f,1,1.13349470012,0.317079024331,SPR,39,A,,f,50.0085671705,001,2017_01_20_1109,
科學家協助熟識表姐的院士,科學家排斥院士？,的,表姐,院士,科學家 ,熟識,j,協助,12,1,24,0,3,3,7,space,space,0.443618926492,space,0.373313059856,space,0.597252896252,space,0.6972730671,space,0.487220721579,space,0.73706766392,j,1,1.02543776859,0.377028680105,SPR,39,A,,f,50.0085671705,001,2017_01_20_1109,
小張欽佩隊長袒護的消防員,校長欽佩隊長？,的,袒護,消防員,小張,隊長,j,欽佩,12,2,52,0,4,4,11,space,space,0.500428482501,space,0.613783518245,space,0.423830969081,space,0.913718111015,space,0.993636117108,space,2.44371208344,j,1,1.61257168842,0.400646335556,SPR,39,A,,f,50.0085671705,001,2017_01_20_1109,
許多古生物學家著迷於恐龍,學者討厭恐龍？,於,著迷,恐龍,許多,生物學家,j,古,12,3,22,0,5,5,21,space,space,0.370037961457,space,0.477016482859,space,0.623461972818,space,0.560273928804,space,0.576982180575,space,0.567031755074,j,1,1.18057330209,0.517025814343,SPR,39,A,,f,50.0085671705,001,2017_01_20_1109,
刑警緝拿政府輕視的逃亡者,政府重視逃亡者？,的,輕視,逃亡者,刑警,政府,j,緝拿,12,2,56,0,6,6,15,space,space,0.553893861865,space,0.366974045131,space,0.403953012581,space,0.472604948609,space,0.403959328307,space,1.19374908965,j,1,1.75044910729,0.383786901106,SPR,39,A,,f,50.0085671705,001,2017_01_20_1109,
阿姨看見交警驅趕的行政人員,交警驅趕行政人員？,的,驅趕,行政人員,阿姨,交警,f,看見,13,2,53,0,7,7,12,space,space,0.550639289577,space,0.41005676653,space,0.420560212746,space,0.467097241251,space,0.400461205854,space,1.33721039932,f,1,1.65057617179,0.475498735079,SPR,39,A,,f,50.0085671705,001,2017_01_20_1109,
媽媽討厭小白忽視的企業家,小白忽視企業家？,的,忽視,企業家,媽媽,小白,f,討厭,12,2,55,0,8,8,14,space,space,0.584295001221,space,0.41709919518,space,0.371149923876,space,0.420313504719,space,0.418998649619,space,1.30409981373,f,1,5.70045974534,0.373567267805,SPR,39,A,,f,50.0085671705,001,2017_01_20_1109,
贊助商支持貴族拉攏的青年,貴族排斥青年？,的,拉攏,青年,贊助商,貴族,j,支持,12,2,54,0,9,9,13,space,space,0.58970718323,space,0.384381763501,space,0.436964520228,space,0.4672721079,space,0.55043442323,space,0.983449246633,j,1,4.5676570119,0.483813782414,SPR,39,A,,f,50.0085671705,001,2017_01_20_1109,
如果天氣好的話我就去野餐,天氣好也不野餐？,就,我,去野餐,如果,的話,j,天氣好,12,3,24,0,10,10,23,space,space,0.516840684641,space,0.429218677653,space,0.387135814546,space,0.423960046721,space,0.420557449615,space,0.603831908546,f,0,2.60687648296,0.403628542184,SPR,39,A,,f,50.0085671705,001,2017_01_20_1109,
有人明年要在高雄舉辦演唱會,明年有演唱會？,舉辦,高雄,演唱會,有人,要在,f,明年,13,3,17,0,11,11,16,space,space,0.350415397106,space,0.700415929996,space,0.567282015696,space,0.617301772076,space,0.443592874124,space,0.503974367628,f,1,1.57895426586,0.550192846731,SPR,39,A,,f,50.0085671705,001,2017_01_20_1109,
外婆批評辱罵農夫的木匠,外婆批評木匠？,的,農夫,木匠,外婆,辱罵,f,批評,11,1,19,0,12,12,2,space,space,0.733646119637,space,0.547440374618,space,0.564526385719,space,0.507235650375,space,0.890662160396,space,0.800676098414,j,0,6.98705947321,0.350474607034,SPR,39,A,,f,50.0085671705,001,2017_01_20_1109,
青年佩服小謝督促的技術員,青年佩服小謝？,的,督促,技術員,青年,小謝,j,佩服,12,2,50,0,13,13,9,space,space,0.550343239944,space,0.407262452734,space,0.433775078858,space,0.73058062438,space,0.420688895651,space,1.29384149661,j,1,2.15053650114,0.350440265276,SPR,39,A,,f,50.0085671705,001,2017_01_20_1109,
偵探跟蹤迷戀老婆的編輯,偵探跟蹤編輯？,的,老婆,編輯,偵探,迷戀,f,跟蹤,11,1,17,0,14,14,0,space,space,0.519031057185,space,0.41712406335,space,0.417148142053,space,0.433545344344,space,0.500277299823,space,1.25734015589,f,1,4.19226489416,0.417111826629,SPR,39,A,,f,50.0085671705,001,2017_01_20_1109,
治療師開導小崔照顧的飛行員,治療師開導飛行員？,的,照顧,飛行員,治療師,小崔,f,開導,13,2,49,0,15,15,8,space,space,0.590382571125,space,0.367062860021,space,0.413529231348,space,0.557336326989,space,0.726773426111,space,1.1439436732,f,1,3.77910000122,0.483482601558,SPR,39,A,,f,50.0085671705,001,2017_01_20_1109,
同伴欺負取笑小郭的廚師,同伴關心廚師？,的,小郭,廚師,同伴,取笑,j,欺負,11,1,22,0,16,16,5,space,space,0.603844145264,space,0.567126096223,space,0.401944217143,space,0.514653469958,space,0.640385748722,space,0.647427387907,j,1,7.9555230822,0.400279234012,SPR,39,A,,f,50.0085671705,001,2017_01_20_1109,
老闆責罵同情雇主的技工,技工責罵老闆？,的,雇主,技工,老闆,同情,j,責罵,11,1,18,0,17,17,1,space,space,0.540549918112,space,0.433441134872,space,0.583827242803,space,0.533968142692,space,0.480266713086,None,,j,1,2.16700593955,0.450264253901,SPR,39,A,,f,50.0085671705,001,2017_01_20_1109,
妹妹迷戀結識表哥的中醫師,中醫師迷戀妹妹？,的,表哥,中醫師,妹妹,結識,j,迷戀,12,1,20,0,18,18,3,space,space,0.517077129613,space,0.370553877283,space,0.437522277736,space,0.510269961738,space,0.781614054698,space,1.56702464988,j,1,1.87066933664,0.416869460663,SPR,39,A,,f,50.0085671705,001,2017_01_20_1109,
雨後有時會見到漂亮的彩虹,雨後可能現彩虹？,的,漂亮,彩虹,雨後,會見到,f,有時,12,3,21,0,19,19,20,space,space,0.500334536084,space,0.433759684278,space,0.367131938268,space,0.483764046074,space,0.383307695436,space,0.530623966046,f,1,1.74392812073,0.417098800448,SPR,39,A,,f,50.0085671705,001,2017_01_20_1109,
鄰居告發砍傷表弟的疑犯,鄰居告發疑犯？,的,表弟,疑犯,鄰居,砍傷,f,告發,11,1,21,0,20,20,4,space,space,0.350430791688,space,0.387127919888,space,0.433805078554,space,0.50039927227,space,0.417096432049,space,0.551061258986,f,1,1.30716373005,0.373911869578,SPR,39,A,,f,50.0085671705,001,2017_01_20_1109,
哥哥的體育特長是打羽毛球,哥哥不會打羽毛球？,是,特長,打羽毛球,哥哥,體育,j,的,12,3,18,0,21,21,17,space,space,0.420334820292,space,0.450447409941,space,0.400576467844,space,0.370547166825,space,0.442410649261,space,0.450339647874,j,1,1.00011881459,0.333801091752,SPR,39,A,,f,50.0085671705,001,2017_01_20_1109,
小王關注航海家資助的演員,小王關注演員？,的,資助,演員,小王,航海家,f,關注,12,2,51,0,22,22,10,space,space,0.417261430377,space,0.440550668105,space,0.537317450862,space,0.587236155634,space,0.490563319292,space,0.683745572576,f,1,2.17057787704,0.383924268135,SPR,39,A,,f,50.0085671705,001,2017_01_20_1109,
大腦裡的奧秘等著你們去解開,大腦里有奧妙？,你們,等著,去解開,大腦裡,奧秘,f,的,13,3,19,0,23,23,18,space,space,0.453917901094,space,0.417081826934,space,0.393647327521,space,0.523504564493,space,0.477025956448,space,0.363760130325,f,1,1.59118111566,0.343750727789,SPR,39,A,,f,50.0085671705,001,2017_01_20_1109,
法官偏袒代理商詆毀的律師,代理商詆毀律師？,的,詆毀,律師,法官,代理商,f,偏袒,12,2,61,0,0,0,12,space,space,0.740732758364,space,0.713953687575,space,0.673904093339,space,0.787312418019,space,0.773522031421,space,1.25725805146,f,1,3.35194103955,3.41585618146,SPR,39,A,,f,50.0085671705,001,2017_01_20_1109,
外婆感激協助叔叔的警察,外婆感激警察？,的,叔叔,警察,外婆,協助,f,感激,11,1,31,0,1,1,6,space,space,0.417106695104,space,0.386929764001,space,0.36684457276,space,0.45044859414,space,0.350420923367,space,0.350407897184,f,1,1.20055862592,0.367114175291,SPR,39,A,,f,50.0085671705,001,2017_01_20_1109,
朋友毆打碰見駕駛員的盜賊,朋友幫助盜賊？,的,駕駛員,盜賊,朋友,碰見,j,毆打,12,1,32,0,2,2,7,space,space,0.557226985989,space,0.550385476357,space,1.05063119755,space,0.683446365083,space,0.523514432814,space,0.530421862832,j,1,2.13366246158,0.643838082167,SPR,39,A,,f,50.0085671705,001,2017_01_20_1109,
今天爸爸買了一籃新鮮的水果,爸爸買了水果？,的,新鮮,各種水果,今天,買了,f,爸爸,13,3,27,0,3,3,18,space,space,0.607051744346,space,0.373804502244,space,0.400428443027,space,0.370681375991,space,0.410461367694,space,0.450395305206,f,1,1.1640091278,0.417093668921,SPR,39,A,,f,50.0085671705,001,2017_01_20_1109,
律師帮助惹怒上尉的服務員,律師無視服務員？,的,上尉,服務員,律師,惹怒,j,幫助,12,1,30,0,4,4,5,space,space,0.484782062076,space,0.367047070707,space,0.550414686588,space,0.640383380325,space,0.633445950614,space,3.53381222322,j,1,1.65052248813,0.366829967645,SPR,39,A,,f,50.0085671705,001,2017_01_20_1109,
警衛攔住治療師責備的婦女,治療師沒責備婦女？,的,責備,婦女,警衛,治療師,j,攔住,12,2,62,0,5,5,13,space,space,0.479176066243,space,0.383775453854,space,0.417034853725,space,0.417048274643,space,1.27392919835,space,0.750494896301,j,1,1.52372719382,0.383642823619,SPR,39,A,,f,50.0085671705,001,2017_01_20_1109,
海關扣留空服員侮辱的旅客,海關扣留空服員？,的,侮辱,旅客,海關,空服員,j,扣留,12,2,58,0,6,6,9,space,space,0.617146247334,space,0.387248313406,space,0.377650779064,space,0.480226450336,space,0.700539481377,space,1.05906505947,j,1,1.45055004048,0.400389759208,SPR,39,A,,f,50.0085671705,001,2017_01_20_1109,
參加國際會議是令人高興的事,參會不值得高興？,的,令人高興,事,參加,是,j,國際會議,13,3,28,0,7,7,19,space,space,0.51708502427,space,0.597256448849,space,0.475671233331,space,0.450508593533,space,0.400388969743,space,0.367234568806,j,1,2.167173701,0.400386206613,SPR,39,A,,f,50.0085671705,001,2017_01_20_1109,
孩子們快樂地享受著陽光,孩子們喜歡陽光？,著,享受,陽光,孩子們,的,f,快樂,11,3,31,0,8,8,22,space,space,0.607272005271,space,0.670338471571,space,0.751407518634,space,0.403658936613,space,0.390120389569,space,0.680262055239,f,1,1.06574117604,0.400360943711,SPR,39,A,,f,50.0085671705,001,2017_01_20_1109,
弟弟花光了所有的零花錢,弟弟還有零花錢？,的,所有,零花錢,弟弟,光了,j,花,11,3,30,0,9,9,21,space,space,0.650409989266,space,0.677218665021,space,0.750423054924,space,0.417066827085,space,0.399200823886,space,0.517082655873,j,1,1.31708178746,0.400429627227,SPR,39,A,,f,50.0085671705,001,2017_01_20_1109,
大叔喜歡親近孩子的阿姨,大叔喜歡阿姨？,的,孩子,阿姨,大叔,親近,f,喜歡,11,1,27,0,10,10,2,space,space,0.490553845704,space,0.356392836546,space,0.417953002318,space,0.440712113837,space,0.370580719116,space,1.26075183186,f,1,1.08379941414,0.456022221881,SPR,39,A,,f,50.0085671705,001,2017_01_20_1109,
群眾反感主播討好的發言人,群眾反感發言人？,的,討好,發言人,群眾,主播,f,反感,12,2,57,0,11,11,8,space,space,0.410102555539,space,0.454046584002,space,0.417146957854,space,0.507268018468,space,0.460385598726,space,2.01422498746,f,1,1.39485481529,0.417093668919,SPR,39,A,,f,50.0085671705,001,2017_01_20_1109,
教授排斥小林支持的研究員,小林不支持研究員？,的,支持,研究員,教授,小林,j,排斥,12,2,64,0,12,12,15,space,space,1.42146967722,space,0.573911553791,space,0.417094458384,space,0.550451396743,space,0.623960915133,space,1.01706982706,j,1,1.85380200753,0.897341434831,SPR,39,A,,f,50.0085671705,001,2017_01_20_1109,
他一邊寫作業一邊看著電視,他沒在看電視？,看著,一邊,電視,他,寫作業,j,一邊,12,3,26,0,13,13,17,space,space,0.640437063992,space,0.563804419349,space,0.55140349236,space,0.33379793389,space,0.36710430697,space,0.483728914851,j,1,1.27066041568,0.807165111617,SPR,39,A,,f,50.0085671705,001,2017_01_20_1109,
店長錯怪熟悉顧客的職工,店長錯怪職工？,的,顧客,職工,店長,熟悉,f,錯怪,11,1,25,0,14,14,0,space,space,0.356991646269,space,0.333775039384,space,0.320597278158,space,0.417189194266,space,0.333471095095,space,0.563946523172,f,1,1.40034436493,0.333404385245,SPR,39,A,,f,50.0085671705,001,2017_01_20_1109,
小明認識大姑姑捧紅的明星,小明認識大姑姑？,的,捧紅,明星,小明,大姑姑,j,認識,12,2,60,0,15,15,11,space,space,0.337340661154,space,0.303870079211,space,0.333794381293,space,0.393278647047,space,0.390676173412,space,0.517045156254,j,1,2.86554452014,0.352866688061,SPR,39,A,,f,50.0085671705,001,2017_01_20_1109,
助手賄賂批評小吳的評論家,助手賄賂評論家？,的,小吳,評論家,助手,批評,f,賄賂,12,1,29,0,16,16,4,None,space,0.957245301594,space,0.520629725199,space,0.596954872957,space,1.07701514077,space,2.10807469451,space,0.757339563796,j,0,3.25237599567,,SPR,39,A,,f,50.0085671705,001,2017_01_20_1109,
導演無視業務員撞見的藝人,業務員撞見藝人？,的,撞見,藝人,導演,業務員,f,無視,12,2,63,0,17,17,14,space,space,0.400412653715,space,0.333758460605,space,0.45723563064,space,0.403529069508,space,0.607122796257,space,1.03692646798,f,1,2.44606784905,0.507084072964,SPR,39,A,,f,50.0085671705,001,2017_01_20_1109,
家長們準備了豐盛的晚餐,晚餐沒有東西吃？,的,豐盛,晚餐,家長們,了,j,準備,11,3,32,0,18,18,23,space,space,0.400447784936,space,0.387283839362,space,0.393740879204,space,0.320585436173,space,0.300493139741,space,0.283754493539,j,1,1.71734444269,0.390382097445,SPR,39,A,,f,50.0085671705,001,2017_01_20_1109,
政府豁免檢舉犯人的同伴,同伴豁免政府？,的,犯人,同伴,政府,檢舉,j,豁免,11,1,26,0,19,19,1,space,space,0.357226512309,space,0.373774897282,space,0.390091179339,space,0.516776343185,space,0.437382542308,space,1.00029289177,j,1,1.63385370964,0.370681375991,SPR,39,A,,f,50.0085671705,001,2017_01_20_1109,
聖誕節是個令人快樂的節日,聖誕節讓人快樂？,的,快樂,節日,聖誕節,令人,f,是個,12,3,25,0,20,20,16,space,space,0.350451317796,space,0.3037437647,space,0.283813703467,space,0.283786072168,space,0.283926202328,space,0.333786881369,f,1,1.20246360662,0.383698086218,SPR,39,A,,f,50.0085671705,001,2017_01_20_1109,
上司懲罰小明責罵的管理員,上司懲罰管理員？,的,責罵,管理員,上司,小明,f,懲罰,12,2,59,0,21,21,10,space,space,0.333424911354,space,0.317165470822,space,0.333825170455,space,0.337138163206,space,0.350090137244,space,0.633625554057,f,1,1.63142886579,0.36708220193,SPR,39,A,,f,50.0085671705,001,2017_01_20_1109,
鄉村的風景迷人且空氣新鮮,鄉村的風景很好？,空氣,且,新鮮,鄉村的,迷人,f,風景,12,3,29,0,22,22,20,space,space,0.346985563436,space,0.260439992911,space,0.304004683112,space,0.250422462825,space,0.283823177055,space,0.291980725984,f,1,1.17059248215,0.456973133299,SPR,39,A,,f,50.0085671705,001,2017_01_20_1109,
鄰居尊敬信任市民的委員,委員尊敬鄰居？,的,市民,委員,鄰居,信任,j,尊敬,11,1,28,0,23,23,3,space,space,0.293753471182,space,0.320604383351,space,0.273960382243,space,0.283831466446,space,0.51910960902,space,0.753687890268,j,1,2.29377754988,0.350392107868,SPR,39,A,,f,50.0085671705,001,2017_01_20_1109,
為了進步就要不斷嚐試新方法,進步需要新方法？,嘗試,不斷,新方法,為了,就要,f,進步,13,3,15,0,0,0,22,space,space,0.353876414672,space,0.337235662219,space,0.340416024734,space,0.330538624807,space,0.254048478719,space,0.433450213728,f,1,1.21585491831,0.475959388306,SPR,39,A,,f,50.0085671705,001,2017_01_20_1109,
王總讚賞維護隊員的教練,王總讚賞教練？,的,隊員,教練,王總,維護,f,讚賞,11,1,15,0,1,1,6,space,space,0.353916677424,space,0.303347452927,space,0.977162336645,space,1.69225285481,space,0.320697540303,space,0.536732062057,f,1,1.35352431298,0.333833065111,SPR,39,A,,f,50.0085671705,001,2017_01_20_1109,
室友鼓足勇氣參加了圍棋比賽,室友參加了比賽？,圍棋,參加了,比賽,室友,勇氣,f,鼓足,13,3,11,0,2,2,18,space,space,0.33378569717,space,0.407655211913,space,0.457212736133,space,0.343829279625,space,0.483628257978,space,0.333933327256,f,1,0.993919140556,0.333772670987,SPR,39,A,,f,50.0085671705,001,2017_01_20_1109,
舅舅斥責女婿讚賞的工程師,女婿讚賞工程師？,的,讚賞,工程師,舅舅,女婿,f,斥責,12,2,47,0,3,3,14,space,space,0.353959308572,space,0.317081787462,space,0.433857972754,space,0.433676000914,space,0.550504685676,space,0.827179645679,f,1,3.45247238942,0.418746810064,SPR,39,A,,f,50.0085671705,001,2017_01_20_1109,
新發芽的種子需要很多肥料,種子需要肥料？,很多,需要,肥料,新發芽,種子,f,的,12,3,13,0,4,4,20,space,space,0.370682560189,space,0.337240793746,space,0.270572784986,space,0.303619818589,space,0.323504880278,space,0.385551751646,f,1,3.54060833857,0.367135490864,SPR,39,A,,f,50.0085671705,001,2017_01_20_1109,
小林懷疑廣播員攔住的大叔,廣播員沒攔大叔？,的,攔住,大叔,小林,廣播員,j,懷疑,12,2,46,0,5,5,13,space,space,0.427039752361,space,0.300372351492,space,0.333769118392,space,0.450070045343,space,0.777079758534,space,0.373607530555,j,1,1.5003791409,0.333803854883,SPR,39,A,,f,50.0085671705,001,2017_01_20_1109,
警察逮捕兇嫌唆使的槍手,警察逮捕兇嫌？,的,唆使,槍手,警察,兇嫌,j,逮捕,11,2,42,0,6,6,9,space,space,0.300371956757,space,0.337268030309,space,0.300400772254,space,0.36418565233,space,0.523883508022,space,0.566944913848,j,1,1.63564934934,0.383785716907,SPR,39,A,,f,50.0085671705,001,2017_01_20_1109,
心理師理解小金關心的助教,心理師理解助教？,的,關心,助教,心理師,小金,f,理解,12,2,41,0,7,7,8,space,space,0.333769513125,space,0.267085715052,space,0.553942808738,space,0.283789624764,space,0.39359048599,space,0.639128129886,f,1,1.87717729702,0.330574940228,SPR,39,A,,f,50.0085671705,001,2017_01_20_1109,
叔叔推薦欣賞小王的村長,村長推薦叔叔？,的,小王,村長,叔叔,欣賞,j,推薦,11,1,12,0,8,8,3,space,space,1.00042512727,space,0.303943499521,space,0.421922435786,space,0.550411133992,space,0.46707632041,space,0.567145832863,j,1,1.88725324757,0.413834754569,SPR,39,A,,f,50.0085671705,001,2017_01_20_1109,
記者打壓邀請王總的政客,記者打壓政客？,的,王總,政客,記者,邀請,f,打壓,11,1,13,0,9,9,4,space,space,0.333712671594,space,0.396169275655,space,0.383527561629,space,0.700610533288,space,0.457177210177,space,0.657110974007,f,1,1.41226727045,0.350339608402,SPR,39,A,,f,50.0085671705,001,2017_01_20_1109,
攝影師誣陷認識張三的司機,攝影師誣陷司機？,的,張三,司機,攝影師,認識,f,誣陷,12,1,9,0,10,10,0,space,space,0.603813356101,space,0.387222261037,space,0.433642448623,space,1.01037278964,space,0.400377917224,space,0.385980826246,f,1,1.4372814907,0.433786920843,SPR,39,A,,f,50.0085671705,001,2017_01_20_1109,
院長刁難厭煩醫生的病人,病人刁難院長？,的,醫生,病人,院長,厭煩,j,刁難,11,1,10,0,11,11,1,space,space,0.650162491776,space,0.590500990977,space,1.36899152469,space,0.823875731785,space,0.417205378313,space,0.837055466674,j,1,1.64037390674,0.406969955699,SPR,39,A,,f,50.0085671705,001,2017_01_20_1109,
明星資助在地人尊敬的導遊,明星資助在地人？,的,尊敬,導遊,明星,在地人,j,資助,12,2,44,0,12,12,11,space,space,0.40048015303,space,0.366784573367,space,0.453889085597,space,1.05354235227,space,0.712303309558,space,0.52059775184,j,1,1.64367900483,0.403862618759,SPR,39,A,,f,50.0085671705,001,2017_01_20_1109,
經常跑步能夠提高身體素質,跑步不利於健康？,身體,提高,素質,經常,能夠,j,跑步,12,3,14,0,13,13,21,space,space,0.483825229665,space,0.585819064729,space,0.370571640262,space,0.497240620063,space,0.607028455106,space,0.303528240571,j,1,1.38396216249,0.407076138834,SPR,39,A,,f,50.0085671705,001,2017_01_20_1109,
教授同情欺瞞群眾的主席,教授批評主席？,的,群眾,主席,教授,欺瞞,j,同情,11,1,16,0,14,14,7,space,space,0.633439240155,space,0.373729108271,space,0.483619179122,space,0.633732526658,space,0.400398048598,space,0.893439105947,j,1,1.20141124886,0.617059011376,SPR,39,A,,f,50.0085671705,001,2017_01_20_1109,
局長辭退老闆害怕的藥劑師,局長辭退藥劑師？,的,害怕,藥劑師,局長,老闆,f,辭退,12,2,43,0,15,15,10,space,space,0.446971392526,space,0.403964459834,space,0.417098405713,space,0.387192656073,space,1.12571727892,space,0.653839033472,f,1,1.2806183411,0.433523239304,SPR,39,A,,f,50.0085671705,001,2017_01_20_1109,
小郭嘲笑嫉妒哥哥的富商,小郭欣賞富商？,的,哥哥,富商,小郭,嫉妒,j,嘲笑,11,1,14,0,16,16,5,space,space,0.553893072398,space,0.300416561569,space,0.517056603505,space,0.560401427512,space,0.476986483163,space,0.727308289113,j,1,1.15733103757,0.383774664389,SPR,39,A,,f,50.0085671705,001,2017_01_20_1109,
這個問題同學們一起討論過,問題沒有被討論？,一起,們,討論過,這個,同學,j,問題,12,3,16,0,17,17,23,space,space,0.413391074853,space,0.35739743163,space,0.367069965212,space,0.3539356246,space,0.293796891794,space,0.33723724115,j,1,1.27052660124,0.382490598449,SPR,39,A,,f,50.0085671705,001,2017_01_20_1109,
旅客結識科學家佩服的商人,科學家佩服商人？,的,佩服,商人,旅客,科學家,f,結識,12,2,45,0,18,18,12,space,space,0.383938873252,space,0.300451692792,space,0.500426508836,space,0.354020097428,space,0.360169245652,space,0.750461738744,j,0,1.65736557669,0.433631396103,SPR,39,A,,f,50.0085671705,001,2017_01_20_1109,
我們週末約了一起去打籃球,我們不想打籃球？,打,一起去,籃球,我們,約了,j,週末,12,3,12,0,19,19,19,space,space,0.683849387317,space,0.420588633511,space,0.503994104271,space,0.350398028862,space,0.35044066001,space,0.46484489565,j,1,1.0372848854,0.667120214703,SPR,39,A,,f,50.0085671705,001,2017_01_20_1109,
姐姐想要舞者羨慕的造型師,舞者討厭造型師？,的,羨慕,造型師,姐姐,舞者,j,想要,12,2,48,0,20,20,15,space,space,0.31721362823,space,0.326698268978,space,0.29455438412,space,0.417081432201,space,0.363673683833,space,0.365701031713,j,1,2.19711339767,0.387258181725,SPR,39,A,,f,50.0085671705,001,2017_01_20_1109,
鄰居的奶奶一個字也不認識,鄰居的奶奶識字？,也,一個字,不認識,鄰居,奶奶,j,的,12,3,10,0,21,21,17,space,space,0.333768328926,space,0.350520396043,space,0.30358942416,space,0.317192312656,space,0.393705747982,space,0.300442219204,j,1,1.33372056625,0.400439495546,SPR,39,A,,f,50.0085671705,001,2017_01_20_1109,
爺爺羨慕拜訪總統的老人,爺爺羨慕老人？,的,總統,老人,爺爺,拜訪,f,羨慕,11,1,11,0,22,22,2,space,space,0.333772670989,space,0.367070359946,space,0.33373280297,space,0.573552741636,space,0.323529353716,space,0.327018397315,f,1,1.05390945381,0.333777802514,SPR,39,A,,f,50.0085671705,001,2017_01_20_1109,
李老師今天看上去很不舒服,老師今天不舒服？,很,上去,不舒服,李老師,看,f,今天,12,3,9,0,23,23,16,space,space,0.409034408467,space,0.350365660768,space,0.350458817718,space,0.350420923367,space,0.383476641093,space,0.347270560549,f,1,1.13367154043,0.360312533676,SPR,39,A,,f,50.0085671705,001,2017_01_20_1109,
公園裡擠滿了玩鬧的小孩,公園裡有小孩？,的,玩鬧,小孩,公園裡,滿了,f,擠,11,3,7,0,0,0,22,space,space,0.45038622635,space,0.370524272319,space,0.333737934498,space,0.340615759551,space,0.31709283998,space,0.277156928803,f,1,1.01727232501,0.405946413437,SPR,39,A,,f,50.0085671705,001,2017_01_20_1109,
老師這次沒有劃考試的重點,老師劃了重點？,的,劃考試,重點,老師,沒有,j,這次,12,3,4,0,1,1,19,space,space,0.400431206157,space,0.267117293679,space,0.347013984201,space,0.387079762482,space,0.499965460876,space,0.320571225793,j,1,1.12062719891,0.367074702006,SPR,39,A,,f,50.0085671705,001,2017_01_20_1109,
助教嫌棄局長愛慕的學生,助教嫌棄學生？,的,愛慕,學生,助教,局長,f,嫌棄,11,2,33,0,2,2,8,space,space,0.400403969592,space,0.317348232129,space,0.367132333002,space,0.417075511208,space,0.417287088012,space,0.423969915042,f,1,1.72059546239,0.377028680105,SPR,39,A,,f,50.0085671705,001,2017_01_20_1109,
證人揭發搶匪指使的殺手,證人揭發殺手？,的,指使,殺手,證人,搶匪,f,揭發,11,2,35,0,3,3,10,space,space,0.40042607463,space,0.33382161786,space,0.400406732722,space,0.383777427518,space,0.457296419498,space,0.781776684631,f,1,1.38711173584,0.410407289293,SPR,39,A,,f,50.0085671705,001,2017_01_20_1109,
究竟存不存在外星人仍是個謎,外星人是個謎？,是個,仍,謎,究竟,外星人,f,存不存在,13,3,3,0,4,4,18,space,space,0.327271815799,space,0.35389259872,space,0.360427400934,space,0.433737579238,space,0.34305797165,space,0.267031241921,f,1,1.85631803467,0.333760829002,SPR,39,A,,f,50.0085671705,001,2017_01_20_1109,
王董賞識表揚工人的廠長,王董賞識廠長？,的,工人,廠長,王董,表揚,f,賞識,11,1,3,0,5,5,2,space,space,0.363586447875,space,0.317145339448,space,0.318256907134,space,0.460345335976,space,0.90374084368,space,0.633720289939,f,1,2.37050019362,0.344105197881,SPR,39,A,,f,50.0085671705,001,2017_01_20_1109,
小李暗戀船長招待的賓客,船長招待過賓客？,的,招待,賓客,小李,船長,f,暗戀,11,2,37,0,6,6,12,space,space,0.346973721451,space,0.333153335157,space,0.340398656488,space,0.723502275043,space,0.483761677677,space,0.350409081382,f,1,1.65484718115,0.36708378086,SPR,39,A,,f,50.0085671705,001,2017_01_20_1109,
村民援助舉薦小潘的水手,村民援助水手？,的,小潘,水手,村民,舉薦,f,援助,11,1,7,0,7,7,6,space,space,0.357082829556,space,0.417059721894,space,0.403989722736,space,1.1068474701,space,0.432183516035,space,0.690669976106,f,1,1.51726462772,0.367086543991,SPR,39,A,,f,50.0085671705,001,2017_01_20_1109,
商人質疑小陳賄賂的企劃員,商人質疑小陳？,的,賄賂,企劃員,商人,小陳,j,質疑,12,2,36,0,8,8,11,space,space,0.327152211748,space,0.467144214461,space,0.317028498528,space,0.417105905639,space,0.357204012538,space,0.323948559995,j,1,2.39393982456,0.363775919639,SPR,39,A,,f,50.0085671705,001,2017_01_20_1109,
強盜綁架主人誣陷的管家,強盜綁架主人？,的,誣陷,管家,強盜,主人,j,綁架,11,2,34,0,9,9,9,space,space,0.413886859304,space,0.270750414766,space,0.557382905463,space,0.407148374943,space,1.6067687209,space,0.692546930773,j,1,1.75733443227,0.431629311124,SPR,39,A,,f,50.0085671705,001,2017_01_20_1109,
叔叔有很多棟房子和別墅,叔叔沒有房子？,和,房子,別墅,叔叔,很多棟,j,有,11,3,8,0,10,10,23,space,space,0.540183606034,space,0.367278778886,space,0.583858821432,space,0.340403788014,space,0.367075491473,space,0.356889015731,j,1,1.08373704635,0.456713399089,SPR,39,A,,f,50.0085671705,001,2017_01_20_1109,
校長相信厭惡房東的小孩,小孩相信校長？,的,房東,小孩,校長,厭惡,j,相信,11,1,2,0,11,11,1,space,space,0.473491913304,space,0.559264991658,space,0.333662540525,space,1.00714979598,space,0.583838690056,space,0.663812353481,j,1,1.23380263121,0.377117889726,SPR,39,A,,f,50.0085671705,001,2017_01_20_1109,
小紅取笑崇拜小張的作家,小紅取笑作家？,的,小張,作家,小紅,崇拜,f,取笑,11,1,1,0,12,12,0,space,space,0.477257664626,space,0.333750171216,space,0.473923751037,space,1.08374296734,space,0.533473147707,space,0.450398857802,f,1,1.67832154858,0.467120925223,SPR,39,A,,f,50.0085671705,001,2017_01_20_1109,
老師調查傷害弟弟的同學,同學調查老師？,的,弟弟,同學,老師,傷害,j,調查,11,1,4,0,13,13,3,space,space,0.390376571186,space,0.370592955835,space,0.367092464983,space,0.49910928534,space,0.367015097348,space,0.390975775641,j,1,1.18394511003,0.437301227343,SPR,39,A,,f,50.0085671705,001,2017_01_20_1109,
司機們大部分都比較好說話,司機討厭說話？,好,比較,說話,司機們,都,j,大部分,12,3,2,0,14,14,17,space,space,0.467114214764,space,0.373603188493,space,0.344562693246,space,0.3373292139,space,0.306645840563,space,0.490550293109,j,1,1.35747361507,0.417016301282,SPR,39,A,,f,50.0085671705,001,2017_01_20_1109,
外婆檢舉嬸嬸救治的鄰居,嬸嬸沒救鄰居？,的,救治,鄰居,外婆,嬸嬸,j,檢舉,11,2,38,0,15,15,13,space,space,0.356893357792,space,0.473733489805,space,0.483734441112,space,0.616972959615,space,0.41711735289,space,0.650460515071,j,1,1.9371510315,0.417085379529,SPR,39,A,,f,50.0085671705,001,2017_01_20_1109,
村民擔心刺客襲擊的鐵匠,刺客襲擊了鐵匠？,的,襲擊,鐵匠,村民,刺客,f,擔心,11,2,39,0,16,16,14,space,space,0.550389423686,space,0.350607237267,space,0.340434577176,space,0.427050015414,space,0.340027212882,space,0.610729470241,f,1,1.64128416067,0.38376676973,SPR,39,A,,f,50.0085671705,001,2017_01_20_1109,
粉絲大罵羞辱小周的導演,粉絲大罵導演？,的,小周,導演,粉絲,羞辱,f,大罵,11,1,5,0,17,17,4,space,space,0.670641626395,space,0.570654613106,space,0.437180833826,space,0.403910776167,space,0.750543448441,space,0.767192095554,f,1,1.15027558274,0.357112434518,SPR,39,A,,f,50.0085671705,001,2017_01_20_1109,
茶餐廳裡有很多好吃的甜點,餐廳裡有甜點？,的,好吃,甜點,茶餐廳裡,很多,f,有,12,3,5,0,18,18,20,space,space,0.47731095356,space,0.377300256301,space,0.334983316616,space,0.417062090291,space,0.333807012745,space,0.483674836452,f,1,1.12734949922,0.367101149106,SPR,39,A,,f,50.0085671705,001,2017_01_20_1109,
傳統小說有很多精華的部分,小說沒有精華？,的,精華,部分,傳統小說,很多 ,j,有 ,12,3,6,0,19,19,21,space,space,0.439055025363,space,0.330577308625,space,0.383748217289,space,0.520574857333,space,0.467113820032,space,0.350421712832,j,1,1.13071538617,0.417151299915,SPR,39,A,,f,50.0085671705,001,2017_01_20_1109,
名嘴毀謗賞識徐總的詩人,名嘴稱讚詩人？,的,徐總,詩人,名嘴,賞識,j,毀謗,11,1,8,0,20,20,7,space,space,0.367179306211,space,0.370125986881,space,0.953631917149,space,0.637365647743,space,0.383745848891,space,0.523892192146,f,0,1.66398524647,0.413790149758,SPR,39,A,,f,50.0085671705,001,2017_01_20_1109,
敵人搜查戰士掩護的村民,戰士沒掩護村民？,的,掩護,村民,敵人,戰士,j,搜查,11,2,40,0,21,21,15,space,space,0.583491719886,space,0.753931440433,space,0.500395719675,space,0.543855016207,space,0.458039306706,space,0.663367094834,j,1,1.71035569771,0.697002280371,SPR,39,A,,f,50.0085671705,001,2017_01_20_1109,
警察逮捕了正在逃跑的罪犯,罪犯正在逃跑？,的,逃跑,罪犯,警察,正在,f,逮捕了,12,3,1,0,22,22,16,space,space,0.392634048312,space,0.406764694621,space,0.360340559708,space,0.367240095067,space,0.327022344643,space,0.386833054456,f,1,1.45413539889,0.683775572274,SPR,39,A,,f,50.0085671705,001,2017_01_20_1109,
小劉愛慕欽佩領隊的組長,小劉討厭組長？,的,領隊,組長,小劉,欽佩,j,愛慕,11,1,6,0,23,23,5,space,space,0.357085592685,space,0.367146938117,space,0.400481337228,space,1.07075507261,space,0.373841212398,space,0.367018649942,j,1,1.04359666356,0.372108335219,SPR,39,A,,f,50.0085671705,001,2017_01_20_1109,
