Sentences,Question,word5,word4,word6,word1,word3,Ans,word2,lenth,Type,ID,practicetrials.thisRepN,practicetrials.thisTrialN,practicetrials.thisN,practicetrials.thisIndex,key_resp_12.keys,key_resp_12.rt,Atests1.keys,Atests1.rt,Atests2.keys,Atests2.rt,Atests3.keys,Atests3.rt,Atests4.keys,Atests4.rt,Atests5.keys,Atests5.rt,Atests6.keys,Atests6.rt,key_resp_8.keys,key_resp_8.corr,key_resp_8.rt,expName,participant,version,Grade,Gender,frameRate,session,date,
每個人都應該要遵守交通規則,交通規則要遵守?,交通,遵守,規則,每個人,要,f,都應該,13,3,63,0,0,0,22,space,1.35355036531,space,0.557215144043,space,0.600511810626,space,0.550384292146,space,0.54356409813,space,0.602498895722,space,0.520609199128,f,1,1.42367702327,SPR,44,B,,f,50.0100479743,001,2017_01_23_1259,
朋友毆打駕駛員碰見的盜賊,朋友幫助盜賊？,的,碰見,盜賊,朋友,駕駛員,j,毆打,12,2,32,0,1,1,7,space,0.417087747948,space,0.417044722009,space,0.562184041017,space,0.540585838782,space,0.550620342372,space,0.420630869921,space,0.410660313035,f,0,1.90372465964,SPR,44,B,,f,50.0100479743,001,2017_01_23_1259,
熱鬧的夜市有很多美味的食物,夜市很多美食?,的,美味,食物,熱鬧的,有很多,f,夜市,13,3,61,0,2,2,20,space,0.425550030603,space,0.443732214801,space,0.417275640764,space,0.430391034228,space,0.41711301083,space,0.457282998541,space,0.483613652876,f,1,0.917050445685,SPR,44,B,,f,50.0100479743,001,2017_01_23_1259,
助手賄賂小吳批評的評論家,助手賄賂評論家？,的,批評,評論家,助手,小吳,f,賄賂,12,2,29,0,3,3,4,space,0.450131623656,space,0.353965229529,space,0.530575413897,space,0.43345968728,space,0.450348332,space,0.433767184208,space,0.500430456188,j,0,2.62899415364,SPR,44,B,,f,50.0100479743,001,2017_01_23_1259,
隔壁的大伯擅長修理各種電器,大伯不會修電器?,各種,修理,電器,隔壁的,擅長,j,大伯,13,3,64,0,4,4,23,space,0.483995359566,space,0.473177311243,space,0.403680646908,space,0.426934753428,space,0.700319220487,space,0.409836110834,space,0.40043357457,j,1,1.04057103628,SPR,44,B,,f,50.0100479743,001,2017_01_23_1259,
海關扣留侮辱空服員的旅客,海關扣留空服員？,的,空服員,旅客,海關,侮辱,j,扣留,12,1,58,0,5,5,9,space,0.463963851973,space,0.45038898947,space,0.450218859653,space,0.650439594232,space,0.550447449437,space,0.439938832249,space,0.440518694755,f,0,1.28401580668,SPR,44,B,,f,50.0100479743,001,2017_01_23_1259,
媽媽的拿手菜是糖醋排骨,媽媽有拿手菜?,糖醋,是,排骨,媽媽,拿手菜,f,的,11,3,59,0,6,6,18,space,0.45039569994,space,0.75894375809,space,0.654118899081,space,0.520242492319,space,0.523771798646,space,0.667120214726,space,0.500266642019,f,1,1.0458399303,SPR,44,B,,f,50.0100479743,001,2017_01_23_1259,
政府豁免犯人檢舉的同伴,同伴豁免政府？,的,檢舉,同伴,政府,犯人,j,豁免,11,2,26,0,7,7,1,space,0.483664178639,space,0.487418877485,space,0.570613166201,space,0.503913183988,space,0.492364485282,space,0.550049953454,space,0.504301995912,j,1,1.69018327049,SPR,44,B,,f,50.0100479743,001,2017_01_23_1259,
朋友們推薦了許多好聽的歌曲,朋友推薦了歌曲?,的,好聽,歌曲,朋友們,許多,f,推薦了,13,3,57,0,8,8,16,space,0.508865107549,space,0.433512976218,space,1.08063405147,space,0.403722883377,space,0.4875013766,space,0.473749279103,space,0.433444687456,f,1,0.867119504197,SPR,44,B,,f,50.0100479743,001,2017_01_23_1259,
小明昨天吃了一碗美味的小米粥,昨天沒吃小米粥?,的,美味,小米粥,小明,吃了一碗,j,昨天,12,3,58,0,9,9,17,space,0.400444627041,space,0.517037656333,space,0.433827578323,space,0.657067553431,space,0.417027353775,space,0.417072748067,space,0.556908436585,j,1,1.21362428303,SPR,44,B,,f,50.0100479743,001,2017_01_23_1259,
法官偏袒詆毀代理商的律師,律師詆毀代理商？,的,代理商,律師,法官,詆毀,f,偏袒,12,1,61,0,10,10,12,space,0.400512126391,space,0.433342056931,space,0.624204465246,space,0.60036615422,space,0.517113445036,space,0.483467601705,space,0.849921388959,j,0,2.20679303649,SPR,44,B,,f,50.0100479743,001,2017_01_23_1259,
鄰居尊敬市民信任的委員,委員尊敬鄰居？,的,信任,委員,鄰居,市民,j,尊敬,11,2,28,0,11,11,3,space,0.39541809907,space,0.567047939112,space,1.46356911911,space,1.08375954611,space,0.467080662493,space,0.48383707169,space,0.440208829474,j,1,1.61268537148,SPR,44,B,,f,50.0100479743,001,2017_01_23_1259,
上司懲罰責罵小明的管理員,上司懲罰管理員？,的,小明,管理員,上司,責罵,f,懲罰,12,1,59,0,12,12,10,space,0.40039410122,space,0.73080838524,space,0.550409949792,space,0.6339666032,space,0.467242897663,space,0.423707022972,space,0.593487539678,f,1,1.51153902779,SPR,44,B,,f,50.0100479743,001,2017_01_23_1259,
律師帮助上尉惹怒的服務員,律師無視服務員？,的,惹怒,服務員,律師,上尉,j,幫助,12,2,30,0,13,13,5,space,0.353697205952,space,0.433779815619,space,0.383868610836,space,0.500531113066,space,0.486840593861,space,0.573932474654,space,0.710390434193,j,1,1.50056821795,SPR,44,B,,f,50.0100479743,001,2017_01_23_1259,
店長錯怪顧客熟悉的職工,店長錯怪職工？,的,熟悉,職工,店長,顧客,f,錯怪,11,2,25,0,14,14,0,space,0.402259608672,space,0.383609271317,space,0.467474211124,space,0.437157149834,space,0.65383863874,space,0.517122918623,space,0.467110267433,f,1,1.38561806676,SPR,44,B,,f,50.0100479743,001,2017_01_23_1259,
小明認識捧紅大姑姑的明星,小明認識大姑姑？,的,大姑姑,明星,小明,捧紅,j,認識,12,1,60,0,15,15,11,space,0.390508411976,space,0.457234446483,space,0.440579483635,space,0.560286560212,space,0.503906868282,space,0.417079063773,space,0.607150032825,j,1,1.40379709308,SPR,44,B,,f,50.0100479743,001,2017_01_23_1259,
大叔喜歡孩子親近的阿姨,大叔喜歡阿姨？,的,親近,阿姨,大叔,孩子,f,喜歡,11,2,27,0,16,16,2,space,0.340320894087,space,0.327204316505,space,0.539244931308,space,0.887415877485,space,0.450384252646,space,0.383466378029,space,0.493563683645,f,1,1.03359650169,SPR,44,B,,f,50.0100479743,001,2017_01_23_1259,
警衛攔住責備治療師的婦女,婦女沒責備治療師？,的,治療師,婦女,警衛,責備,j,攔住,12,1,62,0,17,17,13,space,0.331239275634,space,0.453631325043,space,0.564221257227,space,0.710337934783,space,0.437152018305,space,0.403958144132,space,0.453693692805,j,1,1.70361523965,SPR,44,B,,f,50.0100479743,001,2017_01_23_1259,
群眾反感討好主播的發言人,群眾反感發言人？,的,主播,發言人,群眾,討好,f,反感,12,1,57,0,18,18,8,space,0.393559302087,space,0.350381450087,space,0.500775057881,space,0.493904338102,space,0.417086169007,space,0.490603187296,space,0.583745927841,f,1,0.983692796843,SPR,44,B,,f,50.0100479743,001,2017_01_23_1259,
我今天學會了一個新的技能,我沒學會技能?,新的,一個,技能,我,學會了,j,今天,12,3,60,0,19,19,19,space,0.53373327665,space,0.350376713264,space,0.387220287404,space,0.603545332502,space,0.390639463265,space,0.450651881576,space,0.420671132684,j,1,0.934144746163,SPR,44,B,,f,50.0100479743,001,2017_01_23_1259,
導演無視撞見業務員的藝人,藝人撞見業務員？,的,業務員,藝人,導演,撞見,f,無視,12,1,63,0,20,20,14,space,0.516841079399,space,0.383574140084,space,0.473604806873,space,0.633751079149,space,0.389276450733,space,0.480430527241,space,0.533746697591,f,1,1.73373690818,SPR,44,B,,f,50.0100479743,001,2017_01_23_1259,
外婆感激叔叔協助的警察,外婆感激警察？,的,協助,警察,外婆,叔叔,f,感激,11,2,31,0,21,21,6,space,0.330265864381,space,0.40715271706,space,0.367129964638,space,0.54041018273,space,0.483855624101,space,0.483436023118,space,0.407166137942,f,1,0.883855781984,SPR,44,B,,f,50.0100479743,001,2017_01_23_1259,
童年的回憶總是美好而快樂的,童年回憶很痛苦?,而,美好,快樂的,童年的,總是,j,回憶,13,3,62,0,22,22,21,space,0.415307897551,space,0.56343218626,space,0.430464454519,space,0.353593785956,space,0.357256117277,space,0.457483128121,space,0.417082616419,j,1,1.56696938729,SPR,44,B,,f,50.0100479743,001,2017_01_23_1259,
教授排斥支持小林的研究員,研究員不支持小林？,的,小林,研究員,教授,支持,j,排斥,12,1,64,0,23,23,15,space,0.383916768187,space,0.450420173351,space,0.597317237698,space,0.470304840361,space,0.467077504611,space,0.437289385358,space,0.640248776472,j,1,1.54889930721,SPR,44,B,,f,50.0100479743,001,2017_01_23_1259,
主任指責上司嘲笑的會計,主任指責會計？,的,嘲笑,會計,主任,上司,f,指責,11,2,23,0,0,0,6,None,,space,0.710699510004,space,0.733745592297,space,0.456823529501,space,0.487108222733,space,0.543638702657,space,0.433640080213,f,1,1.0974954596,SPR,44,B,,f,50.0100479743,001,2017_01_23_1259,
科學家協助表姐熟識的院士,科學家排斥院士？,的,熟識,院士,科學家 ,表姐,j,協助,12,2,24,0,1,1,7,space,0.617066511302,space,0.786283349502,space,0.950326029619,space,0.385904248047,space,0.616997827776,space,0.433764815796,space,0.420572844159,j,1,0.783588903141,SPR,44,B,,f,50.0100479743,001,2017_01_23_1259,
每個人的相處方式都不一樣,相處方式都一樣?,都,方式,不一樣,每個人,相處,j,的,12,3,50,0,2,2,17,space,0.60653306538,space,0.500341641251,space,0.560622872668,space,0.600448653335,space,0.400390153925,space,0.370590982202,space,0.353926151001,j,1,1.71724220691,SPR,44,B,,f,50.0100479743,001,2017_01_23_1259,
週六有場精彩的戲劇要公演了,週六沒有戲劇?,戲劇,的,要公演了,週六,精彩,j,有場,13,3,54,0,3,3,21,space,0.383801900956,space,0.433456924162,space,0.420748895034,space,0.500160064141,space,0.420572449453,space,0.537483238673,space,0.70396694669,j,1,1.03365413268,SPR,44,B,,f,50.0100479743,001,2017_01_23_1259,
刑警緝拿輕視政府的逃亡者,逃亡者重視政府？,的,政府,逃亡者,刑警,輕視,j,緝拿,12,1,56,0,4,4,15,space,0.32370303612,space,0.383810979838,space,0.433349951578,space,0.423827811203,space,0.433769552561,space,0.417111826653,space,0.551401123928,j,1,1.36719470075,SPR,44,B,,f,50.0100479743,001,2017_01_23_1259,
鄰居告發表弟砍傷的疑犯,鄰居告發疑犯？,的,砍傷,疑犯,鄰居,表弟,f,告發,11,2,21,0,5,5,4,space,0.367030886642,space,0.387252655462,space,0.588465353707,space,0.533773934119,space,0.550399686734,space,0.461115459737,space,0.333455305838,f,1,2.65397916362,SPR,44,B,,f,50.0100479743,001,2017_01_23_1259,
親近大自然的最好方式是旅遊,旅遊能親近自然?,是,最好方式,旅遊,親近,的,f,大自然,13,3,55,0,6,6,22,space,0.417115773947,space,0.403921039251,space,0.400441074453,space,0.390663936676,space,0.427417116996,space,0.343622439599,space,0.373362796206,f,1,1.3839368996,SPR,44,B,,f,50.0100479743,001,2017_01_23_1259,
偵探跟蹤老婆迷戀的編輯,偵探跟蹤編輯？,的,迷戀,編輯,偵探,老婆,f,跟蹤,11,2,17,0,7,7,0,space,0.300418929954,space,0.526848741167,space,0.380720616376,space,0.383740322606,space,0.490545556357,space,0.433766000031,space,0.487395982957,f,1,0.832809325482,SPR,44,B,,f,50.0100479743,001,2017_01_23_1259,
老闆責罵雇主同情的技工,技工責罵老闆？,的,同情,技工,老闆,雇主,j,責罵,11,2,18,0,8,8,1,space,0.360439637676,space,0.299803936214,space,0.363490133022,space,0.423750443559,space,0.390527753916,space,0.40043357457,space,0.367077859875,j,1,1.67733550596,SPR,44,B,,f,50.0100479743,001,2017_01_23_1259,
外婆批評農夫辱罵的木匠,外婆批評木匠？,的,辱罵,木匠,外婆,農夫,f,批評,11,2,19,0,9,9,2,space,0.380580486206,space,0.383737164782,space,0.333704382239,space,0.423867284495,space,0.500424140482,space,0.417308403587,space,0.367001676466,f,1,0.950422739144,SPR,44,B,,f,50.0100479743,001,2017_01_23_1259,
同伴欺負小郭取笑的廚師,同伴關心廚師？,的,取笑,廚師,同伴,小郭,j,欺負,11,2,22,0,10,10,5,space,0.340404182731,space,0.283692520461,space,0.533449069015,space,0.383920320834,space,0.4169906436,space,0.470204183483,space,0.552574664704,j,1,1.07053323276,SPR,44,B,,f,50.0100479743,001,2017_01_23_1259,
小王關注資助航海家的演員,小王關注演員？,的,航海家,演員,小王,資助,f,關注,12,1,51,0,11,11,10,space,0.333425700839,space,0.407208769058,space,0.517209759855,space,0.42722014524,space,0.433701658563,space,0.483264709008,space,0.540583075664,f,1,0.987247366051,SPR,44,B,,f,50.0100479743,001,2017_01_23_1259,
妹妹迷戀表哥結識的中醫師,中醫師迷戀妹妹？,的,結識,中醫師,妹妹,表哥,j,迷戀,12,2,20,0,12,12,3,space,0.3804245668,space,0.417024195951,space,0.396834795247,space,0.368855341861,space,0.39375587902,space,0.360388717148,space,0.350456844026,j,1,0.80057425733,SPR,44,B,,f,50.0100479743,001,2017_01_23_1259,
阿姨看見驅趕交警的行政人員,行政人員驅趕交警？,的,交警,行政人員,阿姨,驅趕,f,看見,13,1,53,0,13,13,12,space,0.400454100687,space,0.383765585546,space,0.340170106152,space,0.530550545722,space,0.333996089757,space,0.383317958505,space,0.420795078739,f,1,1.31697797269,SPR,44,B,,f,50.0100479743,001,2017_01_23_1259,
音樂可以讓人身心得到放鬆,音樂會讓人放鬆?,得到,身心,放鬆,音樂,讓人,f,可以,12,3,51,0,14,14,18,space,0.467238555604,space,0.373854633304,space,0.37463462539,space,0.383774664428,space,0.433760473796,space,0.413825280964,space,0.387294891872,f,1,1.037357911,SPR,44,B,,f,50.0100479743,001,2017_01_23_1259,
每週都有寫不完的作業和報告,每週都有作業?,作業和,的,報告,每週,寫不完,f,都有,13,3,53,0,15,15,20,space,0.267137819785,space,0.333460437309,space,0.423786364321,space,0.367012334231,space,0.383713480784,space,0.450520830229,space,0.350167110155,f,1,1.58374869096,SPR,44,B,,f,50.0100479743,001,2017_01_23_1259,
青年佩服督促小謝的技術員,青年佩服小謝？,的,小謝,技術員,青年,督促,j,佩服,12,1,50,0,16,16,9,space,0.325643937569,space,0.490374637011,space,0.483760098752,space,0.403902881488,space,0.48351378541,space,0.450423725997,space,0.660253047419,j,1,1.29737909231,SPR,44,B,,f,50.0100479743,001,2017_01_23_1259,
博物館裡有很多珍貴的收藏品,有很多收藏品?,的,珍貴,收藏品,博物館裡,很多,j,有,13,3,56,0,17,17,23,space,0.300398009131,space,0.483568653348,space,0.333651882771,space,0.417116563418,space,0.390017364291,space,0.33381174953,space,0.566909782647,f,0,1.6908468164,SPR,44,B,,f,50.0100479743,001,2017_01_23_1259,
贊助商支持拉攏貴族的青年,青年排斥貴族？,的,貴族,青年,贊助商,拉攏,j,支持,12,1,54,0,18,18,13,space,0.383833084896,space,0.303330479423,space,0.544736059906,space,0.670598995232,space,0.554036755173,space,0.473071522836,space,0.383808611427,j,1,0.917066234979,SPR,44,B,,f,50.0100479743,001,2017_01_23_1259,
校園門口的那棵樹長滿了新葉,樹長滿了新葉?,長滿了,樹,新葉,校園門口,那棵,f,的,13,3,49,0,19,19,16,space,0.434086128371,space,0.676630513102,space,0.510578248126,space,0.356529414072,space,0.301369446621,space,0.410653602565,space,0.54038491979,f,1,1.4339045512,SPR,44,B,,f,50.0100479743,001,2017_01_23_1259,
媽媽討厭忽視小白的企業家,企業家忽視小白？,的,小白,企業家,媽媽,忽視,f,討厭,12,1,55,0,20,20,14,space,0.955613081285,space,0.600655888091,space,0.493965521629,space,0.543654491892,space,0.419015623105,space,0.384760707035,space,0.720561910071,f,1,0.99014707352,SPR,44,B,,f,50.0100479743,001,2017_01_23_1259,
治療師開導照顧小崔的飛行員,治療師開導飛行員？,的,小崔,飛行員,治療師,照顧,f,開導,13,1,49,0,21,21,8,space,0.367099964875,space,0.34943093342,space,0.38051496062,space,0.333958984935,space,0.490362005541,space,0.380384303979,space,0.350440659968,f,1,0.770636139612,SPR,44,B,,f,50.0100479743,001,2017_01_23_1259,
小張欽佩袒護隊長的消防員,校長欽佩隊長？,的,隊長,消防員,小張,袒護,j,欽佩,12,1,52,0,22,22,11,space,0.396904268244,space,0.366893914354,space,0.323774088058,space,0.500499534421,space,0.403895776311,space,0.400448969158,space,0.320520305249,j,1,3.14552694664,SPR,44,B,,f,50.0100479743,001,2017_01_23_1259,
桌子上擺滿了一大堆舊的文件,桌上沒有文件?,的,舊,文件,桌子上,一大堆,j,擺滿了,12,3,52,0,23,23,19,space,0.350190004625,space,0.353338788555,space,0.376924075885,space,0.283692915167,space,0.33077862236,space,0.300379851426,space,0.333719382063,j,1,1.00074801873,SPR,44,B,,f,50.0100479743,001,2017_01_23_1259,
助教嫌棄愛慕局長的學生,助教嫌棄學生？,的,局長,學生,助教,愛慕,f,嫌棄,11,1,33,0,0,0,8,space,0.613904701255,space,1.030180089,space,0.530351995141,space,0.433715079445,space,0.406980218773,space,0.457258130424,space,0.500427298248,f,1,0.767037755053,SPR,44,B,,f,50.0100479743,001,2017_01_23_1259,
村民援助小潘舉薦的水手,村民援助水手？,的,舉薦,水手,村民,小潘,f,援助,11,2,7,0,1,1,6,space,0.383460851735,space,0.340526155196,space,0.417012353952,space,0.370463483443,space,0.417021432833,space,0.39989910624,space,0.408961777634,f,1,1.5674399088,SPR,44,B,,f,50.0100479743,001,2017_01_23_1259,
證人揭發指使搶匪的殺手,證人揭發殺手？,的,搶匪,殺手,證人,指使,f,揭發,11,1,35,0,2,2,10,space,0.50046242954,space,0.370242038334,space,0.397040451004,space,0.434170206427,space,0.340239579149,space,0.383708349254,space,0.450475830701,f,1,1.2838389664,SPR,44,B,,f,50.0100479743,001,2017_01_23_1259,
每年都會頒布新的法規制度,年年都沒新制度?,法規,的,制度,每年,新,j,都會頒布,12,3,34,0,3,3,17,space,0.406761931488,space,0.360653582902,space,0.475330578862,space,0.417086169007,space,0.41706485342,space,0.440322512528,space,0.453661719454,j,1,1.70043606136,SPR,44,B,,f,50.0100479743,001,2017_01_23_1259,
手機是個既方便又重要的發明,手機讓人不方便?,的,又重要,發明,手機,既方便,j,是個,13,3,36,0,4,4,19,space,0.583878163365,space,0.370547956321,space,0.437277543417,space,0.367041939171,space,0.326936687576,space,0.38397558342,space,0.320614646422,j,1,0.957476220326,SPR,44,B,,f,50.0100479743,001,2017_01_23_1259,
老師調查弟弟傷害的同學,同學調查老師？,的,傷害,同學,老師,弟弟,j,調查,11,2,4,0,5,5,3,space,0.315912983555,space,0.349908165401,space,0.293921627337,space,0.32916021772,space,0.380126938166,space,0.420759158093,space,0.327040502336,j,1,1.12078153947,SPR,44,B,,f,50.0100479743,001,2017_01_23_1259,
強盜綁架誣陷主人的管家,強盜綁架主人？,的,主人,管家,強盜,誣陷,j,綁架,11,1,34,0,6,6,9,space,0.333729645121,space,0.30741201702,space,0.400351075397,space,0.380396540742,space,0.413686335029,space,0.420884683146,space,0.383688612608,j,1,3.23115476326,SPR,44,B,,f,50.0100479743,001,2017_01_23_1259,
阿姨親手製作了一個生日蛋糕,阿姨沒做蛋糕?,生日,一個,蛋糕,阿姨,製作了,j,親手,13,3,38,0,7,7,21,space,0.450588724285,space,0.447238231951,space,0.53384972288,space,0.41360107268,space,0.40041344316,space,0.417014327657,space,0.333648724831,j,1,0.833735368738,SPR,44,B,,f,50.0100479743,001,2017_01_23_1259,
村民擔心襲擊刺客的鐵匠,鐵匠襲擊了刺客？,的,刺客,鐵匠,村民,襲擊,f,擔心,11,1,39,0,8,8,14,space,0.483968912449,space,0.450370042294,space,0.417097616242,space,0.400493968686,space,0.420662053803,space,0.387199366523,space,0.647300678655,f,1,1.41072031244,SPR,44,B,,f,50.0100479743,001,2017_01_23_1259,
敵人搜查掩護戰士的村民,村民沒掩護戰士？,的,戰士,村民,敵人,掩護,j,搜查,11,1,40,0,9,9,15,space,0.377203151991,space,0.350538948493,space,0.367043123348,space,0.367044307583,space,0.533911301172,space,0.450413857645,space,0.400686993031,f,0,1.8672233189,SPR,44,B,,f,50.0100479743,001,2017_01_23_1259,
名嘴毀謗徐總賞識的詩人,名嘴稱讚詩人？,的,賞識,詩人,名嘴,徐總,j,毀謗,11,2,8,0,10,10,7,space,0.427052383835,space,0.367073517817,space,0.317039945803,space,0.353890625061,space,0.690376294835,space,0.400317128398,space,0.350713025662,j,1,1.96539692953,SPR,44,B,,f,50.0100479743,001,2017_01_23_1259,
聽說吃黑巧克力可以提高智商,吃巧克力沒有益處?,提高,可以,智商,聽說,黑巧克力,j,吃,13,3,40,0,11,11,23,space,0.467062504787,space,0.433630211919,space,0.433782578795,space,0.493932364101,space,0.433727316209,space,0.583804743073,space,0.385565962002,j,1,0.870569074526,SPR,44,B,,f,50.0100479743,001,2017_01_23_1259,
和朋友們一起喝下午茶很開心,喝下午茶很開心?,下午茶,喝,很開心,和,一起,f,朋友們,13,3,39,0,12,12,22,space,0.433764026384,space,0.416826829547,space,0.450324253296,space,0.367184042989,space,0.42415662366,space,0.409185591154,space,0.400156472053,f,1,1.47697977273,SPR,44,B,,f,50.0100479743,001,2017_01_23_1259,
善待動物們是對生命的尊重,應該善待動物?,的,生命,尊重,善待,是對,f,動物們,12,3,35,0,13,13,18,space,0.483827598102,space,0.383717428136,space,0.416983143718,space,0.472576527798,space,0.610414868162,space,0.350379476382,space,0.38376953284,f,1,1.07693777315,SPR,44,B,,f,50.0100479743,001,2017_01_23_1259,
商人質疑賄賂小陳的企劃員,商人質疑小陳？,的,小陳,企劃員,商人,賄賂,j,質疑,12,1,36,0,14,14,11,space,0.350469475496,space,0.342427978059,space,0.383618744905,space,0.484006017272,space,0.370578350732,space,0.440520668402,space,0.0337547896197,j,1,1.99397874525,SPR,44,B,,f,50.0100479743,001,2017_01_23_1259,
外婆檢舉救治嬸嬸的鄰居,鄰居沒救嬸嬸？,的,嬸嬸,鄰居,外婆,救治,j,檢舉,11,1,38,0,15,15,13,space,0.333662145771,space,0.30039721966,space,0.383794401016,space,0.383805453544,space,0.350113031745,space,0.423859389848,space,0.579948203173,j,1,2.10737404367,SPR,44,B,,f,50.0100479743,001,2017_01_23_1259,
留學的生活能夠磨礪人的意志,留學能鍛鍊人?,人的,磨礪,意志,留學的,能夠,f,生活,13,3,37,0,16,16,20,space,0.350431581144,space,0.383800322015,space,0.376984864764,space,0.453797507624,space,0.433766789502,space,0.363458159729,space,0.366646022128,f,1,1.24056835211,SPR,44,B,,f,50.0100479743,001,2017_01_23_1259,
校長相信房東厭惡的小孩,小孩相信校長？,的,厭惡,小孩,校長,房東,j,相信,11,2,2,0,17,17,1,space,0.333544515423,space,0.543890147412,space,0.423339921399,space,0.423969125608,space,0.433782973501,space,0.400408311631,space,0.468120388803,j,1,0.927424814261,SPR,44,B,,f,50.0100479743,001,2017_01_23_1259,
粉絲大罵小周羞辱的導演,粉絲大罵導演？,的,羞辱,導演,粉絲,小周,f,大罵,11,2,5,0,18,18,4,space,0.830436191638,space,0.383859137248,space,0.383930583892,space,0.367071149405,space,0.390232098987,space,0.417201036238,space,0.433767973678,f,1,1.08377415122,SPR,44,B,,f,50.0100479743,001,2017_01_23_1259,
小紅取笑小張崇拜的作家,小紅取笑作家？,的,崇拜,作家,小紅,小張,f,取笑,11,2,1,0,19,19,0,space,0.367253515986,space,0.404044195835,space,0.483252077596,space,0.407007060596,space,0.418972991989,space,0.600430495688,space,1.82711254113,f,1,2.04017393506,SPR,44,B,,f,50.0100479743,001,2017_01_23_1259,
小李暗戀招待船長的賓客,賓客招待過船長？,的,船長,賓客,小李,招待,f,暗戀,11,1,37,0,20,20,12,space,0.100063196733,space,0.407298373466,space,0.466969347792,space,0.500403219601,space,0.410377684282,space,0.450402410352,space,0.563965470355,f,1,1.4284888166,SPR,44,B,,f,50.0100479743,001,2017_01_23_1259,
小劉愛慕領隊欽佩的組長,小劉討厭組長？,的,欽佩,組長,小劉,領隊,j,愛慕,11,2,6,0,21,21,5,space,0.310315277078,space,0.433852051792,space,0.417278403882,space,0.403968012426,space,0.467024610378,space,0.400217260933,space,0.317028103746,j,1,0.957855953253,SPR,44,B,,f,50.0100479743,001,2017_01_23_1259,
爺爺一句話就把大家逗開心了,爺爺逗大家開心?,逗,大家,開心了,爺爺,就把,f,一句話,12,3,33,0,22,22,16,space,0.91393402993,space,0.427181856183,space,0.467338817718,space,0.386907658947,space,0.367222726811,space,0.333339254314,space,0.387090025528,f,1,0.900360746309,SPR,44,B,,f,50.0100479743,001,2017_01_23_1259,
王董賞識工人表揚的廠長,王董賞識廠長？,的,表揚,廠長,王董,工人,f,賞識,11,2,3,0,23,23,2,space,0.417060116597,space,0.3270468181,space,0.356846779294,space,0.52708755451,space,0.434274810657,space,0.426469758153,space,0.409155986155,f,1,1.16712238576,SPR,44,B,,f,50.0100479743,001,2017_01_23_1259,
姐姐想要羨慕舞者的造型師,造型師討厭舞者？,的,舞者,造型師,姐姐,羨慕,j,想要,12,1,48,0,0,0,15,space,0.540088870097,space,0.576840471476,space,0.357074934931,space,0.397149002587,space,0.41703603795,space,0.430399718345,space,0.503747790994,j,1,1.64548806549,SPR,44,B,,f,50.0100479743,001,2017_01_23_1259,
院長刁難醫生厭煩的病人,病人刁難院長？,的,厭煩,病人,院長,醫生,j,刁難,11,2,10,0,1,1,1,space,0.400409101101,space,0.500348746486,space,0.430626689689,space,0.603716646554,space,0.530146734032,space,0.480490921356,space,0.58017399034,j,1,1.50398384122,SPR,44,B,,f,50.0100479743,001,2017_01_23_1259,
小朋友需要父母的關愛和鼓勵,小朋友不需要鼓勵？,關愛和,的,鼓勵,小朋友,父母,j,需要,13,3,48,0,2,2,23,space,0.35023421474,space,0.450442278467,space,0.333740302885,space,0.370493088441,space,0.517025024921,space,0.451853843057,space,0.333552015305,j,1,0.957084645284,SPR,44,B,,f,50.0100479743,001,2017_01_23_1259,
小郭嘲笑哥哥嫉妒的富商,小郭欣賞富商？,的,嫉妒,富商,小郭,哥哥,j,嘲笑,11,2,14,0,3,3,5,space,0.403808540315,space,0.534420111799,space,0.43374586862,space,0.450325832178,space,0.50034598331,space,0.420717711153,space,0.340565233782,j,1,1.26059828076,SPR,44,B,,f,50.0100479743,001,2017_01_23_1259,
她的書架上擺放了一大堆的書,書架上沒有書?,的,一大堆,書,她的,擺放了,j,書架上,13,3,42,0,4,4,17,space,0.380598249147,space,0.36701075529,space,0.520628146303,space,0.383789664193,space,0.383776243369,space,0.406700353138,space,0.4168189349,j,1,1.08042957983,SPR,44,B,,f,50.0100479743,001,2017_01_23_1259,
小林懷疑攔住廣播員的大叔,大叔沒攔廣播員？,的,廣播員,大叔,小林,攔住,j,懷疑,12,1,46,0,5,5,13,space,0.500537034008,space,0.503666870762,space,0.453855138563,space,0.547044852283,space,0.383610455552,space,0.5834494835,space,0.423830179614,j,1,1.21687372378,SPR,44,B,,f,50.0100479743,001,2017_01_23_1259,
學校的操場上聚集了很多學生,操場上沒有學生?,很多,聚集了,學生,學校,操場上,j,的,13,3,44,0,6,6,19,space,0.383741901547,space,0.417107879301,space,0.520379859314,space,0.503871342342,space,0.516733317287,space,0.4238854422,space,0.489076755417,j,1,0.77051298297,SPR,44,B,,f,50.0100479743,001,2017_01_23_1259,
爺爺羨慕總統拜訪的老人,爺爺羨慕老人？,的,拜訪,老人,爺爺,總統,f,羨慕,11,2,11,0,7,7,2,space,0.41345225845,space,0.427065015247,space,0.500370062073,space,0.384069529828,space,0.426980937133,space,0.48025408166,space,0.433906524908,f,1,1.11910353013,SPR,44,B,,f,50.0100479743,001,2017_01_23_1259,
旅客結識佩服科學家的商人,商人佩服科學家？,的,科學家,商人,旅客,佩服,f,結識,12,1,45,0,8,8,12,space,0.350435528497,space,0.493495000119,space,0.55727198557,space,0.367061675817,space,0.525330993347,space,0.533944853465,space,0.507195387618,f,1,1.84057450999,SPR,44,B,,f,50.0100479743,001,2017_01_23_1259,
王總讚賞隊員維護的教練,王總讚賞教練？,的,維護,教練,王總,隊員,f,讚賞,11,2,15,0,9,9,6,space,0.400302523281,space,0.366873783001,space,0.583673691726,space,0.368959946092,space,0.413254102517,space,0.637513277819,space,0.383617955435,f,1,0.926810215227,SPR,44,B,,f,50.0100479743,001,2017_01_23_1259,
姐姐非常喜歡吃抹茶霜淇淋,姐姐討厭霜淇淋?,抹茶,吃,霜淇淋,姐姐,喜歡,j,非常,12,3,46,0,10,10,21,space,0.400460416393,space,0.517052656156,space,0.387324102107,space,0.433760473737,space,0.417203799414,space,0.420452450693,space,0.407115217415,j,1,1.0540251105,SPR,44,B,,f,50.0100479743,001,2017_01_23_1259,
攝影師誣陷張三認識的司機,攝影師誣陷司機？,的,認識,司機,攝影師,張三,f,誣陷,12,2,9,0,11,11,0,space,0.367122464697,space,0.409164275567,space,0.400609230681,space,0.433670474624,space,0.41712643177,space,0.433908103791,space,0.683765703929,f,1,1.36708772823,SPR,44,B,,f,50.0100479743,001,2017_01_23_1259,
教授同情群眾欺瞞的主席,教授批評主席？,的,欺瞞,主席,教授,群眾,j,同情,11,2,16,0,12,12,7,space,0.413531994505,space,0.363550527196,space,0.373705029546,space,0.400456863805,space,0.400427653571,space,0.417077090126,space,0.637233806949,j,1,1.76696038735,SPR,44,B,,f,50.0100479743,001,2017_01_23_1259,
記者打壓王總邀請的政客,記者打壓政客？,的,邀請,政客,記者,王總,f,打壓,11,2,13,0,13,13,4,space,0.483785361634,space,0.313825241523,space,0.333808986412,space,0.317044682568,space,0.382257311314,space,0.377267493459,space,0.400034894352,f,1,0.896842097805,SPR,44,B,,f,50.0100479743,001,2017_01_23_1259,
飛上太空是許多人心中的夢想,飛上太空是夢想?,的,心中,夢想,飛上太空,許多人,f,是,13,3,43,0,14,14,18,space,0.377216178225,space,0.407099428063,space,0.45060609252,space,0.609056592453,space,0.367004044878,space,0.30046827154,space,0.317018630216,f,1,1.03381202585,SPR,44,B,,f,50.0100479743,001,2017_01_23_1259,
舅舅斥責讚賞女婿的工程師,工程師讚賞女婿？,的,女婿,工程師,舅舅,讚賞,f,斥責,12,1,47,0,15,15,14,space,0.383818479779,space,0.400386206573,space,0.400463179511,space,0.462366368156,space,0.417115773947,space,0.523478906834,space,0.41727761447,f,1,1.29703251692,SPR,44,B,,f,50.0100479743,001,2017_01_23_1259,
明星資助尊敬在地人的導遊,明星資助在地人？,的,在地人,導遊,明星,尊敬,j,資助,12,1,44,0,16,16,11,space,0.550451791438,space,0.517084234802,space,0.533689066593,space,0.467077504611,space,0.5169788411,space,0.383931768069,space,0.617220851884,j,1,1.39383127302,SPR,44,B,,f,50.0100479743,001,2017_01_23_1259,
大學部設置了許多不同的課程,大學課程有很多?,教學,的,課程,大學部,許多不同,f,設置了,13,3,47,0,17,17,22,space,0.360423058912,space,0.350115400157,space,0.576453238551,space,0.377125389641,space,0.367056149582,space,0.373729503015,space,0.427195277065,f,1,1.25365808792,SPR,44,B,,f,50.0100479743,001,2017_01_23_1259,
叔叔推薦小王欣賞的村長,村長推薦叔叔？,的,欣賞,村長,叔叔,小王,j,推薦,11,2,12,0,18,18,3,space,0.400177392934,space,0.337269609212,space,0.367112201639,space,0.370648218435,space,0.400478179392,space,0.437245570007,space,0.457076158549,j,1,1.43129260401,SPR,44,B,,f,50.0100479743,001,2017_01_23_1259,
老師今天分配了很多重要的任務,老師分配了任務?,的,很多重要,任務,老師,分配了,f,今天,11,3,45,0,19,19,20,space,0.317117313447,space,0.370131513104,space,0.357025988051,space,0.333719382063,space,0.383685849491,space,0.366822862474,space,0.357209144044,f,1,1.35489798331,SPR,44,B,,f,50.0100479743,001,2017_01_23_1259,
今年新出了很多部好看的美劇,今年有很多美劇?,的,好看,美劇,今年,很多部,f,新出了,13,3,41,0,20,20,16,space,0.367034044524,space,0.36039542756,space,0.28366133658,space,0.383182170393,space,0.443821029738,space,0.426915411488,space,0.4171138003,f,1,0.954296647222,SPR,44,B,,f,50.0100479743,001,2017_01_23_1259,
心理師理解關心小金的助教,心理師理解助教？,的,小金,助教,心理師,關心,f,理解,12,1,41,0,21,21,8,space,0.406922982482,space,0.323401855014,space,0.329949683393,space,0.343808358768,space,0.350338818971,space,0.45045806776,space,0.31699297257,f,1,1.00040539063,SPR,44,B,,f,50.0100479743,001,2017_01_23_1259,
警察逮捕唆使兇嫌的槍手,警察逮捕兇嫌？,的,兇嫌,槍手,警察,唆使,j,逮捕,11,1,42,0,22,22,9,space,0.300407088012,space,0.267042689142,space,0.390494201565,space,0.353557470546,space,0.493857364869,space,0.450516488228,space,0.38209191832,j,1,1.07701829867,SPR,44,B,,f,50.0100479743,001,2017_01_23_1259,
局長辭退害怕老闆的藥劑師,局長辭退藥劑師？,的,老闆,藥劑師,局長,害怕,f,辭退,12,1,43,0,23,23,10,space,0.390585384856,space,0.397051503533,space,0.427159356419,space,0.390095126641,space,0.404076958657,space,0.479090409179,space,0.430625900219,f,1,0.810593761038,SPR,44,B,,f,50.0100479743,001,2017_01_23_1259,
