Sentences,Question,word5,word4,word6,word1,word3,Ans,word2,lenth,Type,ID,practicetrials.thisRepN,practicetrials.thisTrialN,practicetrials.thisN,practicetrials.thisIndex,key_resp_12.keys,key_resp_12.rt,Atests1.keys,Atests1.rt,Atests2.keys,Atests2.rt,Atests3.keys,Atests3.rt,Atests4.keys,Atests4.rt,Atests5.keys,Atests5.rt,Atests6.keys,Atests6.rt,key_resp_8.keys,key_resp_8.corr,key_resp_8.rt,expName,participant,version,Grade,Gender,frameRate,session,date,
外婆檢舉救治嬸嬸的鄰居,鄰居沒救嬸嬸？,的,嬸嬸,鄰居,外婆,救治,j,檢舉,11,1,38,0,0,0,13,space,0.810477314924,space,0.710678589181,space,0.600679966796,space,0.747840317956,space,0.756825226883,space,0.941259016166,space,2.11071940453,j,1,2.74212300748,SPR,46,B,,m,50.006000661,001,2017_01_23_1501,
手機是個既方便又重要的發明,手機讓人不方便?,的,又重要,發明,手機,既方便,j,是個,13,3,36,0,1,1,19,space,0.667157319607,space,2.81130980648,space,0.864034667029,space,0.824178097188,space,1.33660369494,space,1.73789028713,space,1.34401046199,j,1,1.19011202123,SPR,46,B,,m,50.006000661,001,2017_01_23_1501,
村民擔心襲擊刺客的鐵匠,鐵匠襲擊了刺客？,的,刺客,鐵匠,村民,襲擊,f,擔心,11,1,39,0,2,2,14,space,0.450312411296,space,0.590597305796,space,0.487101906969,space,0.516306611127,space,0.530642518483,space,0.573788397131,space,0.653636140807,f,1,1.07138151367,SPR,46,B,,m,50.006000661,001,2017_01_23_1501,
名嘴毀謗徐總賞識的詩人,名嘴稱讚詩人？,的,賞識,詩人,名嘴,徐總,j,毀謗,11,2,8,0,3,3,7,space,0.411092545546,space,0.540275578795,space,0.623339605634,space,0.596883031598,space,0.527047291747,space,0.5205685416,space,0.513633085531,j,1,1.26452981989,SPR,46,B,,m,50.006000661,001,2017_01_23_1501,
善待動物們是對生命的尊重,應該善待動物?,的,生命,尊重,善待,是對,f,動物們,12,3,35,0,4,4,18,space,0.416890381486,space,0.384936363145,space,0.520739066182,space,0.44710757531,space,0.494141967269,space,0.441703682765,space,0.420654159156,f,1,1.07518555404,SPR,46,B,,m,50.006000661,001,2017_01_23_1501,
證人揭發指使搶匪的殺手,證人揭發殺手？,的,搶匪,殺手,證人,指使,f,揭發,11,1,35,0,5,5,10,space,0.430525638105,space,0.464999236225,space,0.501122028101,space,0.453870138444,space,0.610195396759,space,0.753666574717,space,1.80048307404,f,1,3.21183693275,SPR,46,B,,m,50.006000661,001,2017_01_23_1501,
阿姨親手製作了一個生日蛋糕,阿姨沒做蛋糕?,生日,一個,蛋糕,阿姨,製作了,j,親手,13,3,38,0,6,6,21,space,0.477371347661,space,0.506462763471,space,0.630629531806,space,0.63715170254,space,0.620520423632,space,0.71415618551,space,0.556911989173,j,1,0.929995709273,SPR,46,B,,m,50.006000661,001,2017_01_23_1501,
每年都會頒布新的法規制度,年年都沒新制度?,法規,的,制度,每年,新,j,都會頒布,12,3,34,0,7,7,17,space,0.333647935418,space,0.428156451555,space,0.534667609318,space,0.510165357555,space,0.50407502451,space,0.520212887321,space,0.473538097052,j,1,1.19061964768,SPR,46,B,,m,50.006000661,001,2017_01_23_1501,
和朋友們一起喝下午茶很開心,喝下午茶很開心?,下午茶,喝,很開心,和,一起,f,朋友們,13,3,39,0,8,8,22,space,0.403959328309,space,0.541864378494,space,0.420665211685,space,0.487589796772,space,0.376896839356,space,0.413969358488,space,0.383542561496,f,1,1.00063157256,SPR,46,B,,m,50.006000661,001,2017_01_23_1501,
小李暗戀招待船長的賓客,賓客招待過船長？,的,船長,賓客,小李,招待,f,暗戀,11,1,37,0,9,9,12,space,0.433874551498,space,0.433831130911,space,0.53735100315,space,0.589885997178,space,0.48072302423,space,0.470433917944,space,0.821042734198,f,1,3.674768953,SPR,46,B,,m,50.006000661,001,2017_01_23_1501,
聽說吃黑巧克力可以提高智商,吃巧克力沒有益處?,提高,可以,智商,聽說,黑巧克力,j,吃,13,3,40,0,10,10,23,space,0.47699714097,space,0.580338593922,space,0.533663014183,space,0.614221671713,space,0.599633530073,space,0.903953604691,space,0.500513350067,j,1,1.50195886171,SPR,46,B,,m,50.006000661,001,2017_01_23_1501,
老師調查弟弟傷害的同學,同學調查老師？,的,傷害,同學,老師,弟弟,j,調查,11,2,4,0,11,11,3,space,0.410929915612,space,0.477392663306,space,0.571067898418,space,0.452774754725,space,0.478246470389,space,0.456518006336,space,0.470705494168,j,1,1.62060173869,SPR,46,B,,m,50.006000661,001,2017_01_23_1501,
助教嫌棄愛慕局長的學生,助教嫌棄學生？,的,局長,學生,助教,愛慕,f,嫌棄,11,1,33,0,12,12,8,space,0.423992020078,space,0.437047019368,space,0.5011500541,space,0.451155165967,space,0.357196907338,space,0.480754602875,space,1.46725552913,f,1,1.36393933906,SPR,46,B,,m,50.006000661,001,2017_01_23_1501,
爺爺一句話就把大家逗開心了,爺爺逗大家開心?,逗,大家,開心了,爺爺,就把,f,一句話,12,3,33,0,13,13,16,space,0.497357460961,space,0.457341024303,space,0.471006675332,space,0.470847203222,space,0.450124913186,space,0.437942273507,space,0.500199142727,f,1,0.841422001366,SPR,46,B,,m,50.006000661,001,2017_01_23_1501,
校長相信房東厭惡的小孩,小孩相信校長？,的,厭惡,小孩,校長,房東,j,相信,11,2,2,0,14,14,1,space,0.531003304292,space,0.5602636658,space,0.423739785794,space,0.420043507474,space,0.446940603375,space,0.438393847842,space,0.560425506206,j,1,1.43048261222,SPR,46,B,,m,50.006000661,001,2017_01_23_1501,
小劉愛慕領隊欽佩的組長,小劉討厭組長？,的,欽佩,組長,小劉,領隊,j,愛慕,11,2,6,0,15,15,5,space,0.507125914621,space,0.450038071955,space,0.524885339953,space,0.450391357881,space,0.539212957956,space,0.543838437414,space,1.68706132844,j,1,1.62152541347,SPR,46,B,,m,50.006000661,001,2017_01_23_1501,
商人質疑賄賂小陳的企劃員,商人質疑小陳？,的,小陳,企劃員,商人,賄賂,j,質疑,12,1,36,0,16,16,11,space,0.460664280166,space,0.520428806194,space,0.580648459261,space,0.597204344114,space,0.590647436853,space,0.430381165876,space,1.14157724986,j,1,1.81328149704,SPR,46,B,,m,50.006000661,001,2017_01_23_1501,
村民援助小潘舉薦的水手,村民援助水手？,的,舉薦,水手,村民,小潘,f,援助,11,2,7,0,17,17,6,space,0.484075490269,space,0.502668591391,space,0.4769624045,space,0.399953974178,space,0.511099295458,space,0.771293764526,space,0.463647276163,j,0,12.4618453208,SPR,46,B,,m,50.006000661,001,2017_01_23_1501,
粉絲大罵小周羞辱的導演,粉絲大罵導演？,的,羞辱,導演,粉絲,小周,f,大罵,11,2,5,0,18,18,4,space,0.466625535511,space,0.820351951697,space,0.547077220399,space,1.23145949707,space,0.800345312338,space,0.714002239751,space,0.750130952569,f,1,1.91049432789,SPR,46,B,,m,50.006000661,001,2017_01_23_1501,
王董賞識工人表揚的廠長,王董賞識廠長？,的,表揚,廠長,王董,工人,f,賞識,11,2,3,0,19,19,2,space,0.396859663364,space,0.507611041307,space,0.443688794214,space,0.63720064942,space,0.790173441696,space,0.681956643355,space,2.47069246799,f,1,1.16035429644,SPR,46,B,,m,50.006000661,001,2017_01_23_1501,
強盜綁架誣陷主人的管家,強盜綁架主人？,的,主人,管家,強盜,誣陷,j,綁架,11,1,34,0,20,20,9,space,0.861148380442,space,0.507304728613,space,0.433878893557,space,0.469527216686,space,0.487471771718,space,0.500623480533,space,1.37959720672,j,1,1.2181127902,SPR,46,B,,m,50.006000661,001,2017_01_23_1501,
小紅取笑小張崇拜的作家,小紅取笑作家？,的,崇拜,作家,小紅,小張,f,取笑,11,2,1,0,21,21,0,space,0.457249841013,space,0.433779815678,space,0.507100651739,space,0.490804106346,space,0.577198099461,space,0.480894732988,space,2.54967929929,f,1,2.84548814443,SPR,46,B,,m,50.006000661,001,2017_01_23_1501,
敵人搜查掩護戰士的村民,村民沒掩護戰士？,的,戰士,村民,敵人,掩護,j,搜查,11,1,40,0,22,22,15,space,0.563916918181,space,0.463546224579,space,0.420401924872,space,0.466417511285,space,0.433877314674,space,0.620116611943,space,1.12344045984,j,1,1.92743073526,SPR,46,B,,m,50.006000661,001,2017_01_23_1501,
留學的生活能夠磨礪人的意志,留學能鍛鍊人?,人的,磨礪,意志,留學的,能夠,f,生活,13,3,37,0,23,23,20,space,0.520101177914,space,0.587177735171,space,0.516940157337,space,0.437288201181,space,0.510203251848,space,0.360407664324,space,0.432808772835,f,1,1.13414877246,SPR,46,B,,m,50.006000661,001,2017_01_23_1501,
週六有場精彩的戲劇要公演了,週六沒有戲劇?,戲劇,的,要公演了,週六,精彩,j,有場,13,3,54,0,0,0,21,space,0.540645048721,space,0.850055203366,space,0.640185224474,space,0.511213767983,space,0.500655059121,space,0.508349191688,space,0.557029619522,j,1,0.97698233847,SPR,46,B,,m,50.006000661,001,2017_01_23_1501,
贊助商支持拉攏貴族的青年,青年排斥貴族？,的,貴族,青年,贊助商,拉攏,j,支持,12,1,54,0,1,1,13,space,0.380692985083,space,0.3896474996,space,0.41704195895,space,0.388952769863,space,0.470464707178,space,1.28344107571,space,0.991447323526,j,1,3.49466696189,SPR,46,B,,m,50.006000661,001,2017_01_23_1501,
青年佩服督促小謝的技術員,青年佩服小謝？,的,小謝,技術員,青年,督促,j,佩服,12,1,50,0,2,2,9,space,0.543763832888,space,0.514233868977,space,0.540697153483,space,0.382297574077,space,0.520360912138,space,0.473712963692,None,,j,1,6.63127689366,SPR,46,B,,m,50.006000661,001,2017_01_23_1501,
偵探跟蹤老婆迷戀的編輯,偵探跟蹤編輯？,的,迷戀,編輯,偵探,老婆,f,跟蹤,11,2,17,0,3,3,0,space,0.556677912595,space,0.817592374398,space,0.646167400701,space,0.914200079802,space,0.6152625822,space,0.617181773297,space,1.26742202742,f,1,1.22709414654,SPR,46,B,,m,50.006000661,001,2017_01_23_1501,
科學家協助表姐熟識的院士,科學家排斥院士？,的,熟識,院士,科學家 ,表姐,j,協助,12,2,24,0,4,4,7,space,0.577319282456,space,0.588407327945,space,0.621181206428,space,0.611084335076,space,0.769978909404,space,0.774617809744,space,1.01129251713,j,1,0.866426353285,SPR,46,B,,m,50.006000661,001,2017_01_23_1501,
親近大自然的最好方式是旅遊,旅遊能親近自然?,是,最好方式,旅遊,親近,的,f,大自然,13,3,55,0,5,5,22,space,0.453525536694,space,0.59030638769,space,0.387635546329,space,0.393809562724,space,0.406988902891,space,0.343632307951,space,0.569740411884,f,1,1.24013019871,SPR,46,B,,m,50.006000661,001,2017_01_23_1501,
博物館裡有很多珍貴的收藏品,有很多收藏品?,的,珍貴,收藏品,博物館裡,很多,j,有,13,3,56,0,6,6,23,space,0.374674098683,space,0.550216925389,space,0.417935239326,space,0.339510507591,space,0.483380365709,space,0.393691142846,space,0.540235316032,f,0,3.47446019296,SPR,46,B,,m,50.006000661,001,2017_01_23_1501,
桌子上擺滿了一大堆舊的文件,桌上沒有文件?,的,舊,文件,桌子上,一大堆,j,擺滿了,12,3,52,0,7,7,19,space,0.493600788526,space,0.693670735229,space,0.551679410622,space,0.598112229665,space,0.530166865385,space,0.407124296238,space,0.815715025004,j,1,2.02687735925,SPR,46,B,,m,50.006000661,001,2017_01_23_1501,
妹妹迷戀表哥結識的中醫師,中醫師迷戀妹妹？,的,結識,中醫師,妹妹,表哥,j,迷戀,12,2,20,0,8,8,3,space,0.362907902105,space,0.400097656879,space,0.437360437296,space,0.576444554434,space,0.407436135167,space,0.500640059297,space,0.967086780875,j,1,0.964661936974,SPR,46,B,,m,50.006000661,001,2017_01_23_1501,
老闆責罵雇主同情的技工,技工責罵老闆？,的,同情,技工,老闆,雇主,j,責罵,11,2,18,0,9,9,1,space,0.450235043711,space,0.540532549843,space,0.557841979724,space,0.540529786726,space,0.453890664561,space,0.524819024897,space,0.757008382934,j,1,1.34782831807,SPR,46,B,,m,50.006000661,001,2017_01_23_1501,
每個人的相處方式都不一樣,相處方式都一樣?,都,方式,不一樣,每個人,相處,j,的,12,3,50,0,10,10,17,space,0.427113567421,space,0.52127037663,space,0.373317796679,space,0.44556930149,space,0.384009530419,space,0.460528886761,space,0.406942324364,j,1,1.80346370174,SPR,46,B,,m,50.006000661,001,2017_01_23_1501,
校園門口的那棵樹長滿了新葉,樹長滿了新葉?,長滿了,樹,新葉,校園門口,那棵,f,的,13,3,49,0,11,11,16,space,0.405154974083,space,0.420617054275,space,0.380723774259,space,0.390331176925,space,0.39359956485,space,0.40654127585,space,0.460657964402,f,1,0.947005536931,SPR,46,B,,m,50.006000661,001,2017_01_23_1501,
同伴欺負小郭取笑的廚師,同伴關心廚師？,的,取笑,廚師,同伴,小郭,j,欺負,11,2,22,0,12,12,5,space,0.38390216307,space,0.590384939511,space,0.557101066224,space,0.511686657905,space,0.481720119365,space,0.540172553505,space,3.09293945314,j,1,1.02765143034,SPR,46,B,,m,50.006000661,001,2017_01_23_1501,
音樂可以讓人身心得到放鬆,音樂會讓人放鬆?,得到,身心,放鬆,音樂,讓人,f,可以,12,3,51,0,13,13,18,space,0.440093567478,space,0.59529738978,space,0.544350405922,space,0.333030967973,space,0.440376985644,space,0.36730562069,space,0.346957142698,f,1,0.786941369122,SPR,46,B,,m,50.006000661,001,2017_01_23_1501,
刑警緝拿輕視政府的逃亡者,逃亡者重視政府？,的,政府,逃亡者,刑警,輕視,j,緝拿,12,1,56,0,14,14,15,space,0.507086836093,space,0.685692000203,space,0.516901078809,space,0.421288100129,space,0.770222459571,space,0.690422083891,space,0.697498459544,j,1,1.04707939143,SPR,46,B,,m,50.006000661,001,2017_01_23_1501,
阿姨看見驅趕交警的行政人員,行政人員驅趕交警？,的,交警,行政人員,阿姨,驅趕,f,看見,13,1,53,0,15,15,12,space,0.427102514892,space,0.486950329621,space,0.410264790757,space,0.396671770548,space,0.611097361194,space,0.540388077672,space,2.33298202109,f,1,2.97346290044,SPR,46,B,,m,50.006000661,001,2017_01_23_1501,
鄰居告發表弟砍傷的疑犯,鄰居告發疑犯？,的,砍傷,疑犯,鄰居,表弟,f,告發,11,2,21,0,16,16,4,space,0.39423390053,space,0.43405336549,space,0.427701719338,space,0.470103921311,space,0.568092402187,space,0.71350921836,space,0.712675542629,f,1,1.11436870968,SPR,46,B,,m,50.006000661,001,2017_01_23_1501,
小張欽佩袒護隊長的消防員,校長欽佩隊長？,的,隊長,消防員,小張,袒護,j,欽佩,12,1,52,0,17,17,11,space,0.50377423811,space,0.483146289189,space,0.476613460633,space,0.480648419762,space,0.746806907351,space,0.840635693574,space,1.26683269127,j,1,1.54922930384,SPR,46,B,,m,50.006000661,001,2017_01_23_1501,
媽媽討厭忽視小白的企業家,企業家忽視小白？,的,小白,企業家,媽媽,忽視,f,討厭,12,1,55,0,18,18,14,space,0.46374280157,space,0.84013438283,space,0.524056006223,space,0.452903832367,space,0.640255486884,space,0.41702932748,space,0.636865521257,f,1,2.75459814421,SPR,46,B,,m,50.006000661,001,2017_01_23_1501,
治療師開導照顧小崔的飛行員,治療師開導飛行員？,的,小崔,飛行員,治療師,照顧,f,開導,13,1,49,0,19,19,8,space,0.370522298617,space,0.583988688537,space,0.537292582681,space,0.470531811763,space,0.55718159175,space,0.393949692836,space,0.507284597261,f,1,1.8167523829,SPR,46,B,,m,50.006000661,001,2017_01_23_1501,
外婆批評農夫辱罵的木匠,外婆批評木匠？,的,辱罵,木匠,外婆,農夫,f,批評,11,2,19,0,20,20,2,space,0.333875696233,space,0.433894682908,space,0.380394172331,space,0.290490609477,space,0.424017283018,space,0.45043122588,space,0.500386640837,f,1,1.29475293477,SPR,46,B,,m,50.006000661,001,2017_01_23_1501,
小王關注資助航海家的演員,小王關注演員？,的,航海家,演員,小王,資助,f,關注,12,1,51,0,21,21,10,space,0.346770434058,space,0.493689603405,space,0.397174265468,space,0.350389739498,space,0.460233231832,space,0.467682630057,space,0.373610293726,f,1,1.22892057541,SPR,46,B,,m,50.006000661,001,2017_01_23_1501,
每週都有寫不完的作業和報告,每週都有作業?,作業和,的,報告,每週,寫不完,f,都有,13,3,53,0,22,22,20,space,0.380746274022,space,0.520206966321,space,0.473506518407,space,0.361416206695,space,0.507206440147,space,0.436718996381,space,0.387213971699,f,1,1.03023969365,SPR,46,B,,m,50.006000661,001,2017_01_23_1501,
主任指責上司嘲笑的會計,主任指責會計？,的,嘲笑,會計,主任,上司,f,指責,11,2,23,0,23,23,6,space,0.403875644959,space,0.466606983042,space,0.391204325948,space,0.440248302766,space,0.354089175642,space,0.507922485529,space,0.463444383524,f,1,1.3734642425,SPR,46,B,,m,50.006000661,001,2017_01_23_1501,
小林懷疑攔住廣播員的大叔,大叔沒攔廣播員？,的,廣播員,大叔,小林,攔住,j,懷疑,12,1,46,0,0,0,13,space,0.440303960058,space,0.570860268897,space,0.393612196262,space,0.400227523991,space,0.543343442434,space,0.593724774139,space,0.520767092181,j,1,0.926999686984,SPR,46,B,,m,50.006000661,001,2017_01_23_1501,
姐姐非常喜歡吃抹茶霜淇淋,姐姐討厭霜淇淋?,抹茶,吃,霜淇淋,姐姐,喜歡,j,非常,12,3,46,0,1,1,21,space,0.394141138298,space,0.460539149819,space,0.350173031155,space,0.510657589359,space,0.377848145494,space,0.430649584217,space,0.476938720501,j,1,1.07020363084,SPR,46,B,,m,50.006000661,001,2017_01_23_1501,
王總讚賞隊員維護的教練,王總讚賞教練？,的,維護,教練,王總,隊員,f,讚賞,11,2,15,0,2,2,6,space,0.457312603539,space,0.420919419616,space,0.430409191875,space,0.483561153407,space,0.338251704583,space,0.420383767167,space,0.609865400067,f,1,0.893278054951,SPR,46,B,,m,50.006000661,001,2017_01_23_1501,
攝影師誣陷張三認識的司機,攝影師誣陷司機？,的,認識,司機,攝影師,張三,f,誣陷,12,2,9,0,3,3,0,space,0.366896677471,space,0.470628126583,space,0.427105672716,space,0.477293980075,space,0.517253969912,space,0.450031756249,space,0.380717063788,f,1,1.46045744012,SPR,46,B,,m,50.006000661,001,2017_01_23_1501,
飛上太空是許多人心中的夢想,飛上太空是夢想?,的,心中,夢想,飛上太空,許多人,f,是,13,3,43,0,4,4,18,space,0.34418651287,space,0.477475557127,space,0.460137311777,space,0.42716093536,space,0.422981504002,space,0.41704787995,space,0.357485851797,f,1,0.980223884573,SPR,46,B,,m,50.006000661,001,2017_01_23_1501,
警察逮捕唆使兇嫌的槍手,警察逮捕兇嫌？,的,兇嫌,槍手,警察,唆使,j,逮捕,11,1,42,0,5,5,9,space,0.433766000031,space,0.463691091514,space,0.38919039903,space,0.467269739544,space,0.459047849115,space,0.386808186304,space,0.320520700014,j,1,1.63674394356,SPR,46,B,,m,50.006000661,001,2017_01_23_1501,
大學部設置了許多不同的課程,大學課程有很多?,教學,的,課程,大學部,許多不同,f,設置了,13,3,47,0,6,6,22,space,0.380484960857,space,0.360430164088,space,0.386795160128,space,0.356850726646,space,0.317734675598,space,0.307298728672,space,0.340427866671,f,1,3.71890087432,SPR,46,B,,m,50.006000661,001,2017_01_23_1501,
小郭嘲笑哥哥嫉妒的富商,小郭欣賞富商？,的,嫉妒,富商,小郭,哥哥,j,嘲笑,11,2,14,0,7,7,5,space,0.42736461747,space,0.493789470813,space,0.540453603317,space,0.414111462305,space,0.31368787447,space,0.387453574454,space,0.336275671958,j,1,0.981255716237,SPR,46,B,,m,50.006000661,001,2017_01_23_1501,
院長刁難醫生厭煩的病人,病人刁難院長？,的,厭煩,病人,院長,醫生,j,刁難,11,2,10,0,8,8,1,space,0.310321987548,space,0.42082942056,space,0.413657519559,space,0.306908337865,space,0.398760696815,space,0.490137007844,space,0.761283339583,j,1,2.65092551033,SPR,46,B,,m,50.006000661,001,2017_01_23_1501,
今年新出了很多部好看的美劇,今年有很多美劇?,的,好看,美劇,今年,很多部,f,新出了,13,3,41,0,9,9,16,space,0.364739067794,space,0.354138517287,space,0.311372766329,space,0.357267959276,space,0.370028882578,space,0.2938063654,space,0.334104641341,f,1,0.870389076357,SPR,46,B,,m,50.006000661,001,2017_01_23_1501,
教授同情群眾欺瞞的主席,教授批評主席？,的,欺瞞,主席,教授,群眾,j,同情,11,2,16,0,10,10,7,space,0.440413301054,space,0.381357320468,space,0.450602539931,space,0.299932224385,space,0.360437663971,space,0.347661740787,space,0.471244699205,j,1,1.08027602878,SPR,46,B,,m,50.006000661,001,2017_01_23_1501,
姐姐想要羨慕舞者的造型師,造型師討厭舞者？,的,舞者,造型師,姐姐,羨慕,j,想要,12,1,48,0,11,11,15,space,0.341033781646,space,0.349972901575,space,0.393711274257,space,0.339870898635,space,0.320631225186,space,0.45053583011,space,0.436932941608,j,1,2.50479462248,SPR,46,B,,m,50.006000661,001,2017_01_23_1501,
叔叔推薦小王欣賞的村長,村長推薦叔叔？,的,欣賞,村長,叔叔,小王,j,推薦,11,2,12,0,12,12,3,space,0.447099680721,space,0.420313109993,space,0.427370143763,space,0.30368968629,space,0.366815757239,space,0.420608370157,space,0.606777010253,j,1,3.5387965148,SPR,46,B,,m,50.006000661,001,2017_01_23_1501,
記者打壓王總邀請的政客,記者打壓政客？,的,邀請,政客,記者,王總,f,打壓,11,2,13,0,13,13,4,space,0.443969449261,space,0.367315883806,space,0.479972637142,space,0.307213466382,space,0.363816182362,space,0.430642478983,space,0.663059992716,f,1,2.32319462026,SPR,46,B,,m,50.006000661,001,2017_01_23_1501,
學校的操場上聚集了很多學生,操場上沒有學生?,很多,聚集了,學生,學校,操場上,j,的,13,3,44,0,14,14,19,space,0.37039953674,space,0.414014357957,space,0.407408898638,space,0.32063083048,space,0.366968518822,space,0.354546671035,space,0.330282048497,j,1,0.846969971491,SPR,46,B,,m,50.006000661,001,2017_01_23_1501,
明星資助尊敬在地人的導遊,明星資助在地人？,的,在地人,導遊,明星,尊敬,j,資助,12,1,44,0,15,15,11,space,0.327521286963,space,0.469582084508,space,0.347214903217,space,0.443948133674,space,0.296968175448,space,0.451491478307,space,2.59039599204,j,1,1.48052881571,SPR,46,B,,m,50.006000661,001,2017_01_23_1501,
心理師理解關心小金的助教,心理師理解助教？,的,小金,助教,心理師,關心,f,理解,12,1,41,0,16,16,8,space,0.422569008195,space,0.3074787269,space,0.416842224135,space,0.356601650245,space,0.368284952943,space,0.416981959541,space,0.373815554776,f,1,1.60744726664,SPR,46,B,,m,50.006000661,001,2017_01_23_1501,
爺爺羨慕總統拜訪的老人,爺爺羨慕老人？,的,拜訪,老人,爺爺,總統,f,羨慕,11,2,11,0,17,17,2,space,0.534002484404,space,0.387216339994,space,0.407549818221,space,0.33932143054,space,0.517375942378,space,0.403463938565,space,0.387120814703,f,1,1.86157034984,SPR,46,B,,m,50.006000661,001,2017_01_23_1501,
她的書架上擺放了一大堆的書,書架上沒有書?,的,一大堆,書,她的,擺放了,j,書架上,13,3,42,0,18,18,17,space,0.403626963263,space,0.410406499868,space,0.36742877739,space,0.307391490904,space,0.334450427268,space,0.397408342047,space,0.29710475303,j,1,0.663075387245,SPR,46,B,,m,50.006000661,001,2017_01_23_1501,
老師今天分配了很多重要的任務,老師分配了任務?,的,很多重要,任務,老師,分配了,f,今天,11,3,45,0,19,19,20,space,0.334152009222,space,0.470595758467,space,0.399388322025,space,0.363671315426,space,0.310465670307,space,0.340222210914,space,0.350197109859,f,1,0.810238501523,SPR,46,B,,m,50.006000661,001,2017_01_23_1501,
局長辭退害怕老闆的藥劑師,局長辭退藥劑師？,的,老闆,藥劑師,局長,害怕,f,辭退,12,1,43,0,20,20,10,space,0.333789249766,space,0.42687633296,space,0.356638360361,space,0.33037481067,space,0.327598259842,space,0.374561994569,space,0.46676921827,f,1,0.669398217986,SPR,46,B,,m,50.006000661,001,2017_01_23_1501,
舅舅斥責讚賞女婿的工程師,工程師讚賞女婿？,的,女婿,工程師,舅舅,讚賞,f,斥責,12,1,47,0,21,21,14,space,0.343579808483,space,0.359703855589,space,0.287412482779,space,0.350329345325,space,0.300861820229,space,0.410091108293,space,0.800334654516,j,0,3.49843113433,SPR,46,B,,m,50.006000661,001,2017_01_23_1501,
小朋友需要父母的關愛和鼓勵,小朋友不需要鼓勵？,關愛和,的,鼓勵,小朋友,父母,j,需要,13,3,48,0,22,22,23,space,0.583977636008,space,0.82909212634,space,0.537249951565,space,0.390639463265,space,0.383801900956,space,0.460609017522,space,0.430128931592,j,1,0.837621118815,SPR,46,B,,m,50.006000661,001,2017_01_23_1501,
旅客結識佩服科學家的商人,商人佩服科學家？,的,科學家,商人,旅客,佩服,f,結識,12,1,45,0,23,23,12,space,0.388457774825,space,0.423809258791,space,0.350092900335,space,0.380144701165,space,0.544661850145,space,1.3410543077,space,0.570286722097,f,1,3.05768783658,SPR,46,B,,m,50.006000661,001,2017_01_23_1501,
店長錯怪顧客熟悉的職工,店長錯怪職工？,的,熟悉,職工,店長,顧客,f,錯怪,11,2,25,0,0,0,0,space,0.555212269537,space,0.563040611276,space,0.53011318174,space,0.39030117722,space,0.480265134189,space,0.420957708731,space,0.404161036771,f,1,1.12349374878,SPR,46,B,,m,50.006000661,001,2017_01_23_1501,
教授排斥支持小林的研究員,研究員不支持小林？,的,小林,研究員,教授,支持,j,排斥,12,1,64,0,1,1,15,space,0.297105147736,space,0.3777091995,space,0.47420045879,space,0.317400336848,space,0.363181846682,space,0.490171349549,space,0.490864500462,j,1,4.06317383365,SPR,46,B,,m,50.006000661,001,2017_01_23_1501,
助手賄賂小吳批評的評論家,助手賄賂評論家？,的,批評,評論家,助手,小吳,f,賄賂,12,2,29,0,2,2,4,space,0.340294052265,space,1.11892195302,space,0.637649065931,space,0.550279687974,space,0.356797437707,space,0.443905897264,space,0.534122483281,f,1,1.63384028873,SPR,46,B,,m,50.006000661,001,2017_01_23_1501,
政府豁免犯人檢舉的同伴,同伴豁免政府？,的,檢舉,同伴,政府,犯人,j,豁免,11,2,26,0,3,3,1,space,0.376849471417,space,0.414329354826,space,0.333873722586,space,0.377157757757,space,0.323801719351,space,0.400124103995,space,0.339938792749,j,1,1.38798133231,SPR,46,B,,m,50.006000661,001,2017_01_23_1501,
熱鬧的夜市有很多美味的食物,夜市很多美食?,的,美味,食物,熱鬧的,有很多,f,夜市,13,3,61,0,4,4,20,space,0.326776820817,space,0.40618838463,space,0.329596397525,space,0.317603624251,space,0.300596165005,space,0.348367917875,space,0.337157899805,f,1,1.09684178198,SPR,46,B,,m,50.006000661,001,2017_01_23_1501,
小明認識捧紅大姑姑的明星,小明認識大姑姑？,的,大姑姑,明星,小明,捧紅,j,認識,12,1,60,0,5,5,11,space,0.300646690768,space,0.38357769273,space,0.370025724755,space,0.553534260252,space,0.630358745053,space,0.530092260917,space,0.397222817643,j,1,3.9816488701,SPR,46,B,,m,50.006000661,001,2017_01_23_1501,
海關扣留侮辱空服員的旅客,海關扣留空服員？,的,空服員,旅客,海關,侮辱,j,扣留,12,1,58,0,6,6,9,space,0.401270408183,space,0.530616860895,space,0.449937809841,space,0.300590244005,space,0.443401033932,space,0.417079458537,space,0.383524009027,j,1,1.45669563615,SPR,46,B,,m,50.006000661,001,2017_01_23_1501,
大叔喜歡孩子親近的阿姨,大叔喜歡阿姨？,的,親近,阿姨,大叔,孩子,f,喜歡,11,2,27,0,7,7,2,space,0.407217453234,space,0.517206602031,space,0.423924126022,space,0.326746426406,space,0.340805626067,space,0.289525092987,space,0.373742923897,f,1,1.09077789611,SPR,46,B,,m,50.006000661,001,2017_01_23_1501,
律師帮助上尉惹怒的服務員,律師無視服務員？,的,惹怒,服務員,律師,上尉,j,幫助,12,2,30,0,8,8,5,space,0.380524434149,space,0.45298277901,space,0.57350537373,space,0.454032768321,space,0.350413818203,space,0.716975367512,space,0.615950206819,j,1,0.916865710693,SPR,46,B,,m,50.006000661,001,2017_01_23_1501,
小明昨天吃了一碗美味的小米粥,昨天沒吃小米粥?,的,美味,小米粥,小明,吃了一碗,j,昨天,12,3,58,0,9,9,17,space,0.36383907689,space,0.420186005998,space,0.35032381909,space,0.320294123318,space,0.288136817515,space,0.390835250786,space,0.356927699584,j,1,0.939016144199,SPR,46,B,,m,50.006000661,001,2017_01_23_1501,
每個人都應該要遵守交通規則,交通規則要遵守?,交通,遵守,規則,每個人,要,f,都應該,13,3,63,0,10,10,22,space,0.363508290786,space,0.364237362344,space,0.433950340201,space,0.383610455552,space,0.327565891785,space,0.370222696452,space,0.350143426156,f,1,0.798925063515,SPR,46,B,,m,50.006000661,001,2017_01_23_1501,
警衛攔住責備治療師的婦女,婦女沒責備治療師？,的,治療師,婦女,警衛,責備,j,攔住,12,1,62,0,11,11,13,space,0.340596022899,space,0.990283256338,space,0.387142524996,space,0.346999773814,space,0.384163476236,space,0.280295449658,space,0.572831564758,j,1,1.23683299526,SPR,46,B,,m,50.006000661,001,2017_01_23_1501,
朋友毆打駕駛員碰見的盜賊,朋友幫助盜賊？,的,碰見,盜賊,朋友,駕駛員,j,毆打,12,2,32,0,12,12,7,space,0.352449060767,space,0.383783348545,space,0.380516144796,space,0.467139477667,space,0.316752185521,space,0.522214577533,space,0.296535153524,j,1,0.940186527092,SPR,46,B,,m,50.006000661,001,2017_01_23_1501,
鄰居尊敬市民信任的委員,委員尊敬鄰居？,的,信任,委員,鄰居,市民,j,尊敬,11,2,28,0,13,13,3,space,0.307099783327,space,0.460950461449,space,0.340606680722,space,0.487022170972,space,0.302325884346,space,0.337090005807,space,0.464012798853,j,1,1.08486874541,SPR,46,B,,m,50.006000661,001,2017_01_23_1501,
朋友們推薦了許多好聽的歌曲,朋友推薦了歌曲?,的,好聽,歌曲,朋友們,許多,f,推薦了,13,3,57,0,14,14,16,space,0.47329415218,space,0.646708579385,space,0.36669062695,space,0.34830160276,space,0.353600891132,space,0.327714311308,space,0.330366126553,f,1,0.69040708401,SPR,46,B,,m,50.006000661,001,2017_01_23_1501,
童年的回憶總是美好而快樂的,童年回憶很痛苦?,而,美好,快樂的,童年的,總是,j,回憶,13,3,62,0,15,15,21,space,0.387162656407,space,0.463510698639,space,0.420892972557,space,0.391475902172,space,0.444255630544,space,0.310664220888,space,0.36333737144,j,1,1.8512611122,SPR,46,B,,m,50.006000661,001,2017_01_23_1501,
導演無視撞見業務員的藝人,藝人撞見業務員？,的,業務員,藝人,導演,撞見,f,無視,12,1,63,0,16,16,14,space,0.373427927087,space,0.381683369807,space,0.443659978686,space,0.337656842195,space,0.463723064924,space,0.333526752423,space,1.80414974742,f,1,1.45576722448,SPR,46,B,,m,50.006000661,001,2017_01_23_1501,
群眾反感討好主播的發言人,群眾反感發言人？,的,主播,發言人,群眾,討好,f,反感,12,1,57,0,17,17,8,space,0.317185602151,space,0.373548320611,space,0.330731649185,space,0.320691224595,space,0.341155754111,space,0.433636132919,space,0.566640180128,f,1,0.841434238129,SPR,46,B,,m,50.006000661,001,2017_01_23_1501,
隔壁的大伯擅長修理各種電器,大伯不會修電器?,各種,修理,電器,隔壁的,擅長,j,大伯,13,3,64,0,18,18,23,space,0.360717924312,space,0.382934672874,space,0.357205196749,space,0.390091574052,space,0.473662437871,space,0.366555233544,space,0.349261593015,j,1,0.894534094841,SPR,46,B,,m,50.006000661,001,2017_01_23_1501,
我今天學會了一個新的技能,我沒學會技能?,新的,一個,技能,我,學會了,j,今天,12,3,60,0,19,19,19,space,0.361377522873,space,0.440826586331,space,0.340096291155,space,0.336896586698,space,0.400684624619,space,0.320626488363,space,0.320210439968,j,1,1.53844125522,SPR,46,B,,m,50.006000661,001,2017_01_23_1501,
上司懲罰責罵小明的管理員,上司懲罰管理員？,的,小明,管理員,上司,責罵,f,懲罰,12,1,59,0,20,20,10,space,0.367525486858,space,0.414059357543,space,0.337254609389,space,0.35676941165,space,0.331416115921,space,0.360509505321,space,0.324061058811,f,1,0.721279929159,SPR,46,B,,m,50.006000661,001,2017_01_23_1501,
媽媽的拿手菜是糖醋排骨,媽媽有拿手菜?,糖醋,是,排骨,媽媽,拿手菜,f,的,11,3,59,0,21,21,18,space,0.310648826358,space,0.37021953857,space,0.356944673054,space,0.370583087555,space,0.363823682303,space,0.333364517253,space,0.460246652772,f,1,0.858704194718,SPR,46,B,,m,50.006000661,001,2017_01_23_1501,
法官偏袒詆毀代理商的律師,律師詆毀代理商？,的,代理商,律師,法官,詆毀,f,偏袒,12,1,61,0,22,22,12,space,0.379605890834,space,0.347208587511,space,0.374165682821,space,0.290146797197,space,0.357276248629,space,0.437168597127,space,3.0194705922,j,0,1.47063838958,SPR,46,B,,m,50.006000661,001,2017_01_23_1501,
外婆感激叔叔協助的警察,外婆感激警察？,的,協助,警察,外婆,叔叔,f,感激,11,2,31,0,23,23,6,space,0.697265961906,space,2.19015544187,space,0.496949307213,space,0.677333927015,space,0.601884296688,space,0.460414414236,space,0.426949358545,f,1,0.640243250178,SPR,46,B,,m,50.006000661,001,2017_01_23_1501,
