Sentences,Question,word5,word4,word6,word1,word3,Ans,word2,lenth,Type,ID,practicetrials.thisRepN,practicetrials.thisTrialN,practicetrials.thisN,practicetrials.thisIndex,key_resp_12.keys,key_resp_12.rt,Atests1.keys,Atests1.rt,Atests2.keys,Atests2.rt,Atests3.keys,Atests3.rt,Atests4.keys,Atests4.rt,Atests5.keys,Atests5.rt,Atests6.keys,Atests6.rt,key_resp_8.keys,key_resp_8.corr,key_resp_8.rt,expName,participant,version,Grade,Gender,frameRate,session,date,
姐姐想要舞者羨慕的造型師,舞者討厭造型師？,的,羨慕,造型師,姐姐,舞者,j,想要,12,2,48,0,0,0,15,space,0.500898609316,space,0.617047958858,space,0.617085063743,space,0.650858800509,space,0.78441744735,space,1.63484646274,space,0.932401211201,j,1,2.28390409729,SPR,11,A,,m,60.0051872391,001,2017_01_09_0810,
為了進步就要不斷嚐試新方法,進步需要新方法？,嘗試,不斷,新方法,為了,就要,f,進步,13,3,15,0,1,1,22,space,0.450463593985,space,0.567126096223,space,0.683702941431,space,0.471453907638,space,0.350459607187,space,0.449924388926,space,0.433664158929,f,1,1.51712568175,SPR,11,A,,m,60.0051872391,001,2017_01_09_0810,
明星資助在地人尊敬的導遊,明星資助在地人？,的,尊敬,導遊,明星,在地人,j,資助,12,2,44,0,2,2,11,space,0.383835847981,space,0.467170661563,space,0.533648014356,space,0.566973729347,space,0.434497439961,space,0.550933760278,space,2.53380472329,f,0,2.85090230007,SPR,11,A,,m,60.0051872391,001,2017_01_09_0810,
叔叔推薦欣賞小王的村長,村長推薦叔叔？,的,小王,村長,叔叔,欣賞,j,推薦,11,1,12,0,3,3,3,space,0.567113859503,space,1.06740813284,space,0.500356246393,space,0.417021827543,space,0.51711818183,space,0.50049795548,space,1.13376272372,j,1,1.68370925715,SPR,11,A,,m,60.0051872391,001,2017_01_09_0810,
小林懷疑廣播員攔住的大叔,廣播員沒攔大叔？,的,攔住,大叔,小林,廣播員,j,懷疑,12,2,46,0,4,4,13,space,0.367037202384,space,0.683775177542,space,0.583694217836,space,0.55026468811,space,0.483792072107,space,0.416756567072,space,0.867063057387,j,1,3.35029737199,SPR,11,A,,m,60.0051872391,001,2017_01_09_0810,
王總讚賞維護隊員的教練,王總讚賞教練？,的,隊員,教練,王總,維護,f,讚賞,11,1,15,0,5,5,6,space,0.333823196794,space,0.366983123989,space,1.03372834249,space,0.467088557129,space,0.500390588149,space,0.383792032633,space,0.43391876161,f,1,1.36713904346,SPR,11,A,,m,60.0051872391,001,2017_01_09_0810,
室友鼓足勇氣參加了圍棋比賽,室友參加了比賽？,圍棋,參加了,比賽,室友,勇氣,f,鼓足,13,3,11,0,6,6,18,space,0.317116129219,space,0.467093688654,space,0.433800736493,space,0.367279963084,space,0.366966545207,space,0.467003294834,space,0.350446975735,f,1,1.16706830734,SPR,11,A,,m,60.0051872391,001,2017_01_09_0810,
心理師理解小金關心的助教,心理師理解助教？,的,關心,助教,心理師,小金,f,理解,12,2,41,0,7,7,8,space,0.350560658793,space,0.617058221909,space,0.633698184902,space,0.500336904483,space,0.417154063045,space,0.450386226348,space,3.78351035128,j,0,3.55049521209,SPR,11,A,,m,60.0051872391,001,2017_01_09_0810,
我們週末約了一起去打籃球,我們不想打籃球？,打,一起去,籃球,我們,約了,j,週末,12,3,12,0,8,8,19,space,0.400493179211,space,0.333641619683,space,0.4001288408,space,0.367292989267,space,0.400467521577,space,0.450309253447,space,0.417039985252,j,1,1.66734047563,SPR,11,A,,m,60.0051872391,001,2017_01_09_0810,
警察逮捕兇嫌唆使的槍手,警察逮捕兇嫌？,的,唆使,槍手,警察,兇嫌,j,逮捕,11,2,42,0,9,9,9,space,0.300362877904,space,0.367022202536,space,0.617074405956,space,0.550094163522,space,0.417087747926,space,0.417182878544,space,0.567325436306,j,1,8.85089480015,SPR,11,A,,m,60.0051872391,001,2017_01_09_0810,
鄰居的奶奶一個字也不認識,鄰居的奶奶識字？,也,一個字,不認識,鄰居,奶奶,j,的,12,3,10,0,10,10,17,space,0.333825170455,space,0.367066412615,space,0.517188049544,space,0.367028518267,space,0.350347503056,space,0.333506621049,space,0.450402015664,j,1,1.38356585072,SPR,11,A,,m,60.0051872391,001,2017_01_09_0810,
爺爺羨慕拜訪總統的老人,爺爺羨慕老人？,的,總統,老人,爺爺,拜訪,f,羨慕,11,1,11,0,11,11,2,space,0.367060886354,space,0.383752559348,space,0.383476641091,space,0.350317898094,space,0.400089367515,space,0.300496692336,space,0.317017840738,f,1,2.61719479947,SPR,11,A,,m,60.0051872391,001,2017_01_09_0810,
這個問題同學們一起討論過,問題沒有被討論？,一起,們,討論過,這個,同學,j,問題,12,3,16,0,12,12,23,space,0.300398798594,space,0.466991452853,space,1.25045404145,space,0.75056239562,space,0.783728243805,space,0.417094853117,space,0.467038031326,j,1,1.88376854603,SPR,11,A,,m,60.0051872391,001,2017_01_09_0810,
局長辭退老闆害怕的藥劑師,局長辭退藥劑師？,的,害怕,藥劑師,局長,老闆,f,辭退,12,2,43,0,13,13,10,space,0.433814157412,space,0.417143405259,space,0.483610889729,space,0.300407877447,space,0.533976826813,space,0.417006038228,space,1.23378526296,f,1,0.917022814374,SPR,11,A,,m,60.0051872391,001,2017_01_09_0810,
院長刁難厭煩醫生的病人,病人刁難院長？,的,醫生,病人,院長,厭煩,j,刁難,11,1,10,0,14,14,1,space,0.550479028043,space,0.567119780495,space,0.550300608797,space,0.783722717548,space,0.517060550836,space,0.40048804769,space,1.05037462121,j,1,2.03369992173,SPR,11,A,,m,60.0051872391,001,2017_01_09_0810,
李老師今天看上去很不舒服,老師今天不舒服？,很,上去,不舒服,李老師,看,f,今天,12,3,9,0,15,15,16,space,0.300462745312,space,0.450374779095,space,0.367122069947,space,0.36694878223,space,0.350452107261,space,0.333396490587,space,0.533857617495,f,1,0.917040972083,SPR,11,A,,m,60.0051872391,001,2017_01_09_0810,
旅客結識科學家佩服的商人,科學家佩服商人？,的,佩服,商人,旅客,科學家,f,結識,12,2,45,0,16,16,12,space,0.333660172124,space,0.467071583615,space,0.48372457279,space,0.617006511908,space,0.883665915491,space,0.383790453703,space,0.40041778524,f,1,2.88394499161,SPR,11,A,,m,60.0051872391,001,2017_01_09_0810,
攝影師誣陷認識張三的司機,攝影師誣陷司機？,的,張三,司機,攝影師,認識,f,誣陷,12,1,9,0,17,17,0,space,0.367169832622,space,0.550432844298,space,0.517126865951,space,0.400500679138,space,0.533671698326,space,0.450517672387,space,0.883708941368,f,1,2.11710697142,SPR,11,A,,m,60.0051872391,001,2017_01_09_0810,
新發芽的種子需要很多肥料,種子需要肥料？,很多,需要,肥料,新發芽,種子,f,的,12,3,13,0,18,18,20,space,0.333818459996,space,0.500359009522,space,0.350507764593,space,0.800371364658,space,0.433482187091,space,0.367096807047,space,0.417235378012,f,1,2.58347316744,SPR,11,A,,m,60.0051872391,001,2017_01_09_0810,
記者打壓邀請王總的政客,記者打壓政客？,的,王總,政客,記者,邀請,f,打壓,11,1,13,0,19,19,4,space,0.383783348509,space,0.53363577764,space,0.333621488309,space,0.350274872213,space,0.317196259984,space,0.367120885749,space,0.633682000855,f,1,1.70038277244,SPR,11,A,,m,60.0051872391,001,2017_01_09_0810,
小郭嘲笑嫉妒哥哥的富商,小郭欣賞富商？,的,哥哥,富商,小郭,嫉妒,j,嘲笑,11,1,14,0,20,20,5,space,0.316985472648,space,0.350427239093,space,0.417023406473,space,0.433754158017,space,0.90043771925,space,0.950687210145,space,0.383836242712,j,1,2.8339801031,SPR,11,A,,m,60.0051872391,001,2017_01_09_0810,
經常跑步能夠提高身體素質,跑步不利於健康？,身體,提高,素質,經常,能夠,j,跑步,12,3,14,0,21,21,21,space,0.350478159628,space,0.400463574253,space,0.800383601378,space,0.383755322477,space,0.367027728797,space,0.333632146096,space,0.316818105923,j,1,1.50036493051,SPR,11,A,,m,60.0051872391,001,2017_01_09_0810,
舅舅斥責女婿讚賞的工程師,女婿讚賞工程師？,的,讚賞,工程師,舅舅,女婿,f,斥責,12,2,47,0,22,22,14,space,0.31733481121,space,0.533760907947,space,0.433809815349,space,0.483669310193,space,0.583770796005,space,0.750443186298,space,0.967010202661,f,1,1.10023608971,SPR,11,A,,m,60.0051872391,001,2017_01_09_0810,
教授同情欺瞞群眾的主席,教授批評主席？,的,群眾,主席,教授,欺瞞,j,同情,11,1,16,0,23,23,7,space,0.383718612324,space,0.383722164919,space,0.483706809813,space,0.55040797613,space,0.500429666699,space,0.466991847581,space,0.517073577019,j,1,1.73371796102,SPR,11,A,,m,60.0051872391,001,2017_01_09_0810,
同伴欺負取笑小郭的廚師,同伴關心廚師？,的,小郭,廚師,同伴,取笑,j,欺負,11,1,22,0,0,0,5,space,0.467378291032,space,0.483782598516,space,0.367262200107,space,0.533707224284,space,0.45033767421,space,0.367132333002,space,0.767050386465,j,1,1.68379136159,SPR,11,A,,m,60.0051872391,001,2017_01_09_0810,
有人明年要在高雄舉辦演唱會,明年有演唱會？,舉辦,高雄,演唱會,有人,要在,f,明年,13,3,17,0,1,1,16,space,0.350227504274,space,0.517156076181,space,0.583706849287,space,0.41713827373,space,0.417045116781,space,0.450425699633,space,0.483766809208,f,1,1.80039662756,SPR,11,A,,m,60.0051872391,001,2017_01_09_0810,
許多古生物學家著迷於恐龍,學者討厭恐龍？,於,著迷,恐龍,許多,生物學家,j,古,12,3,22,0,2,2,21,space,0.483744704168,space,0.633654369554,space,0.417160773504,space,0.550475870179,space,0.467047110182,space,0.417116958157,space,0.483749440962,j,1,2.30033682553,SPR,11,A,,m,60.0051872391,001,2017_01_09_0810,
鄰居告發砍傷表弟的疑犯,鄰居告發疑犯？,的,表弟,疑犯,鄰居,砍傷,f,告發,11,1,21,0,3,3,4,space,0.333757671138,space,0.450517277655,space,0.38384413737,space,0.500377167231,space,0.38375848034,space,0.417145773656,space,0.417101168845,f,1,1.51710002412,SPR,11,A,,m,60.0051872391,001,2017_01_09_0810,
媽媽討厭小白忽視的企業家,小白忽視企業家？,的,忽視,企業家,媽媽,小白,f,討厭,12,2,55,0,4,4,14,space,0.483483785756,space,0.483760888212,space,0.433692579692,space,0.433828762525,space,0.400445021809,space,0.400407522189,space,0.550089426724,f,1,1.05036672655,SPR,11,A,,m,60.0051872391,001,2017_01_09_0810,
夏天是個非常美麗的季節,夏天是個好季節？,的,美麗,季節,夏天,非常,f,是個,11,3,23,0,5,5,22,space,0.517199102062,space,0.467096451786,space,0.41706169556,space,0.350444607338,space,0.45037675276,space,0.350426054894,space,0.367144964453,f,1,2.31709560311,SPR,11,A,,m,60.0051872391,001,2017_01_09_0810,
刑警緝拿政府輕視的逃亡者,政府重視逃亡者？,的,輕視,逃亡者,刑警,政府,j,緝拿,12,2,56,0,6,6,15,space,0.350538948485,space,0.433796789166,space,0.483874966001,space,0.400653440749,space,0.483576153241,space,0.383920320808,space,0.650297095675,j,1,1.05048277801,SPR,11,A,,m,60.0051872391,001,2017_01_09_0810,
青年佩服小謝督促的技術員,青年佩服小謝？,的,督促,技術員,青年,小謝,j,佩服,12,2,50,0,7,7,9,space,0.400472653106,space,0.3669724662,space,0.433908498559,space,0.450315174439,space,1.00041170635,space,0.450567803458,space,1.6506795918,j,1,3.23367079044,SPR,11,A,,m,60.0051872391,001,2017_01_09_0810,
科學家協助熟識表姐的院士,科學家排斥院士？,的,表姐,院士,科學家 ,熟識,j,協助,12,1,24,0,8,8,7,space,0.300188011253,space,0.43385284123,space,0.333749776481,space,0.350406712987,space,0.333819644195,space,0.400475416238,space,0.717125760701,j,1,1.61712453703,SPR,11,A,,m,60.0051872391,001,2017_01_09_0810,
小張欽佩隊長袒護的消防員,校長欽佩隊長？,的,袒護,消防員,小張,隊長,j,欽佩,12,2,52,0,9,9,11,space,0.283814098198,space,0.45050543567,space,0.550431265368,space,0.633776736737,space,0.917117550256,space,0.367167464225,space,0.417157220905,j,1,4.367189964,SPR,11,A,,m,60.0051872391,001,2017_01_09_0810,
偵探跟蹤迷戀老婆的編輯,偵探跟蹤編輯？,的,老婆,編輯,偵探,迷戀,f,跟蹤,11,1,17,0,10,10,0,space,0.417101958308,space,0.467062899497,space,0.433734421375,space,0.517026603808,space,0.417081826934,space,0.417097221518,space,0.383850058362,f,1,2.80061728322,SPR,11,A,,m,60.0051872391,001,2017_01_09_0810,
外婆批評辱罵農夫的木匠,外婆批評木匠？,的,農夫,木匠,外婆,辱罵,f,批評,11,1,19,0,11,11,2,space,0.367069965214,space,0.600499573888,space,0.450445831008,space,0.550421791781,space,0.384070319287,space,0.367144569722,space,0.400418179972,f,1,1.43395389283,SPR,11,A,,m,60.0051872391,001,2017_01_09_0810,
老闆責罵同情雇主的技工,技工責罵老闆？,的,雇主,技工,老闆,同情,j,責罵,11,1,18,0,12,12,1,space,0.383862295079,space,0.500420193111,space,0.550759288362,space,0.400484889822,space,0.317068366545,space,0.367189963996,space,0.317232575406,j,1,2.96718704297,SPR,11,A,,m,60.0051872391,001,2017_01_09_0810,
大腦裡的奧秘等著你們去解開,大腦里有奧妙？,你們,等著,去解開,大腦裡,奧秘,f,的,13,3,19,0,13,13,18,space,0.350420528634,space,0.417096037316,space,0.333777013049,space,0.38370400721,space,0.383782953781,space,0.367121675212,space,0.467104741176,f,1,1.45039767361,SPR,11,A,,m,60.0051872391,001,2017_01_09_0810,
贊助商支持貴族拉攏的青年,貴族排斥青年？,的,拉攏,青年,贊助商,貴族,j,支持,12,2,54,0,14,14,13,space,0.317180075937,space,0.483678389046,space,0.433794815497,space,1.05042593647,space,0.833739316062,space,0.333778591979,space,0.900461008488,j,1,1.51701989335,SPR,11,A,,m,60.0051872391,001,2017_01_09_0810,
治療師開導小崔照顧的飛行員,治療師開導飛行員？,的,照顧,飛行員,治療師,小崔,f,開導,13,2,49,0,15,15,8,space,0.316919552264,space,0.417105510904,space,0.333762407932,space,0.333775039388,space,0.350463949246,space,0.53390103811,space,1.70037487778,f,1,1.26701584734,SPR,11,A,,m,60.0051872391,001,2017_01_09_0810,
哥哥的體育特長是打羽毛球,哥哥不會打羽毛球？,是,特長,打羽毛球,哥哥,體育,j,的,12,3,18,0,16,16,17,space,0.317202970444,space,0.450217675429,space,1.26706913627,space,0.583875005475,space,0.400317917833,space,0.367128385671,space,0.567071623092,f,0,0.883786309008,SPR,11,A,,m,60.0051872391,001,2017_01_09_0810,
雨後有時會見到漂亮的彩虹,雨後可能現彩虹？,的,漂亮,彩虹,雨後,會見到,f,有時,12,3,21,0,17,17,20,space,0.433681527174,space,0.550286398415,space,0.483775493329,space,0.883729072742,space,0.717114313447,space,0.483840624249,space,0.717244575288,f,1,1.43381692054,SPR,11,A,,m,60.0051872391,001,2017_01_09_0810,
主任指責嘲笑上司的會計,主任指責會計？,的,上司,會計,主任,嘲笑,f,指責,11,1,23,0,18,18,6,space,0.317137444792,space,0.550452580941,space,0.467109872705,space,0.550459686132,space,1.11721631241,space,0.383903347294,space,0.584078687622,f,1,3.08370467825,SPR,11,A,,m,60.0051872391,001,2017_01_09_0810,
小王關注航海家資助的演員,小王關注演員？,的,資助,演員,小王,航海家,f,關注,12,2,51,0,19,19,10,space,0.433845341304,space,0.51706686656,space,0.400124104006,space,0.400531863033,space,0.467134740873,space,0.433793236571,space,0.4838256244,f,1,1.73384703865,SPR,11,A,,m,60.0051872391,001,2017_01_09_0810,
妹妹迷戀結識表哥的中醫師,中醫師迷戀妹妹？,的,表哥,中醫師,妹妹,結識,j,迷戀,12,1,20,0,20,20,3,space,0.333871354196,space,0.367064438953,space,0.433800736493,space,1.0004531533,space,0.500357430588,space,0.367122464679,space,3.05046146243,j,1,2.33382438099,SPR,11,A,,m,60.0051872391,001,2017_01_09_0810,
阿姨看見交警驅趕的行政人員,交警驅趕行政人員？,的,驅趕,行政人員,阿姨,交警,f,看見,13,2,53,0,21,21,12,space,0.300413798439,space,0.63339147748,space,0.617227562299,space,0.38377900645,space,0.383752164616,space,0.333728460908,space,0.600341680747,f,1,0.933519094608,SPR,11,A,,m,60.0051872391,001,2017_01_09_0810,
妹妹的個性一向是冷冰冰的,妹妹個性熱情？,是,一向,冷冰冰的,妹妹,個性,j,的,11,3,20,0,22,22,19,space,0.26712281994,space,0.417174983882,space,0.317040340513,space,0.317095997845,space,0.267074662534,space,0.31708020853,space,0.416975643799,j,1,1.40041857471,SPR,11,A,,m,60.0051872391,001,2017_01_09_0810,
如果天氣好的話我就去野餐,天氣好也不野餐？,就,我,去野餐,如果,的話,j,天氣好,12,3,24,0,23,23,23,space,0.367228647818,space,0.433890735581,space,0.450392936807,space,0.550358239791,space,0.367115754223,space,0.333730434573,space,0.483788519512,j,1,2.70061250695,SPR,11,A,,m,60.0051872391,001,2017_01_09_0810,
小明認識大姑姑捧紅的明星,小明認識大姑姑？,的,捧紅,明星,小明,大姑姑,j,認識,12,2,60,0,0,0,11,space,0.36723614774,space,0.366936940241,space,0.383637692092,space,0.417298535267,space,0.35042960749,space,0.367129964605,space,0.500555191742,j,1,4.33394240611,SPR,11,A,,m,60.0051872391,001,2017_01_09_0810,
警衛攔住治療師責備的婦女,治療師沒責備婦女？,的,責備,婦女,警衛,治療師,j,攔住,12,2,62,0,1,1,13,space,0.733841512392,space,0.600386285558,space,0.450433199559,space,0.383548877202,space,0.333794776026,space,0.350423686497,space,0.367075886206,j,1,2.48403009601,SPR,11,A,,m,60.0051872391,001,2017_01_09_0810,
導演無視業務員撞見的藝人,業務員撞見藝人？,的,撞見,藝人,導演,業務員,f,無視,12,2,63,0,2,2,14,space,0.300443403401,space,0.350460791386,space,0.350415002376,space,0.350456844058,space,0.350391318403,space,0.333865433204,space,0.502967404147,f,1,1.73384111766,SPR,11,A,,m,60.0051872391,001,2017_01_09_0810,
大叔喜歡親近孩子的阿姨,大叔喜歡阿姨？,的,孩子,阿姨,大叔,親近,f,喜歡,11,1,27,0,3,3,2,space,0.333692145487,space,0.400483705627,space,0.417086563728,space,0.600414311593,space,0.36678102077,space,0.350293819392,space,0.433717842596,f,1,1.74090130929,SPR,11,A,,m,60.0051872391,001,2017_01_09_0810,
朋友毆打碰見駕駛員的盜賊,朋友幫助盜賊？,的,駕駛員,盜賊,朋友,碰見,j,毆打,12,1,32,0,4,4,7,space,0.25047733069,space,0.300443008669,space,0.350565790319,space,0.350381055348,space,0.433678369311,space,0.450423725972,space,0.400421732571,j,1,2.15089610276,SPR,11,A,,m,60.0051872391,001,2017_01_09_0810,
群眾反感主播討好的發言人,群眾反感發言人？,的,討好,發言人,群眾,主播,f,反感,12,2,57,0,5,5,8,space,0.300454850654,space,0.316820079588,space,0.317023367003,space,0.333778591979,space,0.3171315238,space,0.317077840133,space,0.433710737405,j,0,2.71730654834,SPR,11,A,,m,60.0051872391,001,2017_01_09_0810,
鄰居尊敬信任市民的委員,委員尊敬鄰居？,的,市民,委員,鄰居,信任,j,尊敬,11,1,28,0,6,6,3,space,0.300409456377,space,0.300451298059,space,0.483735625308,space,0.317060866622,space,0.483763651344,space,0.350460791386,space,1.50028914181,j,1,1.46705618903,SPR,11,A,,m,60.0051872391,001,2017_01_09_0810,
店長錯怪熟悉顧客的職工,店長錯怪職工？,的,顧客,職工,店長,熟悉,f,錯怪,11,1,25,0,7,7,0,space,0.333775828851,space,0.783674560138,space,0.450351489861,space,0.700271063044,space,1.28375567774,space,0.400395285469,space,0.617086642673,f,1,1.2004694163,SPR,11,A,,m,60.0051872391,001,2017_01_09_0810,
孩子們快樂地享受著陽光,孩子們喜歡陽光？,著,享受,陽光,孩子們,的,f,快樂,11,3,31,0,8,8,22,space,0.350500659402,space,0.367127201476,space,0.383846111032,space,0.417122484418,space,0.617185720617,space,0.417108274036,space,0.517073971751,f,1,1.46687540139,SPR,11,A,,m,60.0051872391,001,2017_01_09_0810,
聖誕節是個令人快樂的節日,聖誕節讓人快樂？,的,快樂,節日,聖誕節,令人,f,是個,12,3,25,0,9,9,16,space,0.317121260745,space,0.433892709243,space,0.450441094214,space,0.317042708906,space,0.333777802516,space,0.333787276104,space,0.383967294016,f,1,0.70042500885,SPR,11,A,,m,60.0051872391,001,2017_01_09_0810,
弟弟花光了所有的零花錢,弟弟還有零花錢？,的,所有,零花錢,弟弟,光了,j,花,11,3,30,0,10,10,21,space,0.367310357517,space,0.500486113495,space,0.483702467751,space,0.4670052685,space,0.433723368857,space,0.333755302741,space,0.43365073801,j,1,1.20026573415,SPR,11,A,,m,60.0051872391,001,2017_01_09_0810,
律師帮助惹怒上尉的服務員,律師無視服務員？,的,上尉,服務員,律師,惹怒,j,幫助,12,1,30,0,11,11,5,space,0.350444607335,space,0.433405608917,space,0.417099984646,space,0.400501073873,space,1.18382905858,space,0.317099155705,space,0.467023820944,j,1,1.21751832251,SPR,11,A,,m,60.0051872391,001,2017_01_09_0810,
鄉村的風景迷人且空氣新鮮,鄉村的風景很好？,空氣,且,新鮮,鄉村的,迷人,f,風景,12,3,29,0,12,12,20,space,0.333833854576,space,0.400394496002,space,0.500463218992,space,0.383746638356,space,0.367126017278,space,0.349030279562,space,0.385140834755,f,1,0.883751967249,SPR,11,A,,m,60.0051872391,001,2017_01_09_0810,
助手賄賂批評小吳的評論家,助手賄賂評論家？,的,小吳,評論家,助手,批評,f,賄賂,12,1,29,0,13,13,4,space,0.300484060885,space,0.333791223431,space,0.568095165352,space,0.383770717061,space,0.383732427974,space,0.383818479735,space,0.950483133263,f,1,0.766960782104,SPR,11,A,,m,60.0051872391,001,2017_01_09_0810,
參加國際會議是令人高興的事,參會不值得高興？,的,令人高興,事,參加,是,j,國際會議,13,3,28,0,14,14,19,space,0.367136675064,space,0.517092918926,space,0.700834741543,space,0.567096885992,space,0.417257483048,space,0.283780151174,space,0.300379851415,f,0,1.90052890254,SPR,11,A,,m,60.0051872391,001,2017_01_09_0810,
外婆感激協助叔叔的警察,外婆感激警察？,的,叔叔,警察,外婆,協助,f,感激,11,1,31,0,15,15,6,space,0.450402410395,space,0.300148537968,space,0.483655099808,space,0.784031793362,space,0.650546566831,space,0.433811394279,space,0.850453488827,f,1,0.500420193111,SPR,11,A,,m,60.0051872391,001,2017_01_09_0810,
海關扣留空服員侮辱的旅客,海關扣留空服員？,的,侮辱,旅客,海關,空服員,j,扣留,12,2,58,0,16,16,9,space,0.317219154491,space,0.533886827725,space,0.666838375455,space,1.15039716045,space,0.317048629902,space,0.367068781012,space,0.350439475809,j,1,1.50043716662,SPR,11,A,,m,60.0051872391,001,2017_01_09_0810,
上司懲罰小明責罵的管理員,上司懲罰管理員？,的,責罵,管理員,上司,小明,f,懲罰,12,2,59,0,17,17,10,space,0.30050971852,space,0.383782164314,space,0.500432824563,space,0.45059188216,space,0.367113385826,space,0.383796374696,space,0.666990347599,f,1,0.883731835875,SPR,11,A,,m,60.0051872391,001,2017_01_09_0810,
教授排斥小林支持的研究員,小林不支持研究員？,的,支持,研究員,教授,小林,j,排斥,12,2,64,0,18,18,15,space,0.417107089834,space,0.517140681601,space,0.433820473136,space,0.450480172767,space,0.416990248912,space,0.400408311652,space,0.900462982154,f,0,3.61708980054,SPR,11,A,,m,60.0051872391,001,2017_01_09_0810,
法官偏袒代理商詆毀的律師,代理商詆毀律師？,的,詆毀,律師,法官,代理商,f,偏袒,12,2,61,0,19,19,12,space,0.300480113554,space,0.383779795917,space,0.550392976282,space,1.03384478868,space,0.43346758197,space,0.850383226381,space,0.616842697778,f,1,1.43390257757,SPR,11,A,,m,60.0051872391,001,2017_01_09_0810,
政府豁免檢舉犯人的同伴,同伴豁免政府？,的,犯人,同伴,政府,檢舉,j,豁免,11,1,26,0,20,20,1,space,0.317113760822,space,0.300487218748,space,0.583752243561,space,0.583680796921,space,0.516980420067,space,0.500446245478,space,0.81737211347,j,1,2.36705457063,SPR,11,A,,m,60.0051872391,001,2017_01_09_0810,
家長們準備了豐盛的晚餐,晚餐沒有東西吃？,的,豐盛,晚餐,家長們,了,j,準備,11,3,32,0,21,21,23,space,0.300445377066,space,0.467004873768,space,0.383817690268,space,0.500414666851,space,0.43375178962,space,0.283765151325,space,0.300393667065,f,0,2.80040333802,SPR,11,A,,m,60.0051872391,001,2017_01_09_0810,
他一邊寫作業一邊看著電視,他沒在看電視？,看著,一邊,電視,他,寫作業,j,一邊,12,3,26,0,22,22,17,space,0.400512521122,space,0.333632146096,space,0.533701698023,space,0.684025832896,space,0.401264881923,space,0.283353444971,space,0.31712086601,j,1,4.7005793494,SPR,11,A,,m,60.0051872391,001,2017_01_09_0810,
今天爸爸買了一籃新鮮的水果,爸爸買了水果？,的,新鮮,各種水果,今天,買了,f,爸爸,13,3,27,0,23,23,18,space,0.317204154642,space,0.35041579184,space,0.450619908192,space,0.36713035934,space,0.383753348815,space,0.300353404316,space,0.433771526263,f,1,0.800628730474,SPR,11,A,,m,60.0051872391,001,2017_01_09_0810,
王董賞識表揚工人的廠長,王董賞識廠長？,的,工人,廠長,王董,表揚,f,賞識,11,1,3,0,0,0,2,space,0.534020642161,space,0.283767914458,space,0.450489646355,space,0.467259081717,space,0.550310082384,space,0.417090511055,None,,f,1,1.65039577888,SPR,11,A,,m,60.0051872391,001,2017_01_09_0810,
公園裡擠滿了玩鬧的小孩,公園裡有小孩？,的,玩鬧,小孩,公園裡,滿了,f,擠,11,3,7,0,1,1,22,space,0.300514060578,space,0.483729704316,space,0.433783368248,space,0.433757710613,space,0.617067695497,space,0.367144569718,space,0.69989014585,f,1,0.767141175016,SPR,11,A,,m,60.0051872391,001,2017_01_09_0810,
老師調查傷害弟弟的同學,同學調查老師？,的,弟弟,同學,老師,傷害,j,調查,11,1,4,0,2,2,3,space,0.35045565986,space,0.433438371743,space,0.450444252077,space,0.367115754223,space,0.366770362984,space,0.367148911781,space,0.750158978652,j,1,0.850438094247,SPR,11,A,,m,60.0051872391,001,2017_01_09_0810,
叔叔有很多棟房子和別墅,叔叔沒有房子？,和,房子,別墅,叔叔,很多棟,j,有,11,3,8,0,3,3,23,space,0.300462745312,space,0.433986260927,space,0.350369213364,space,0.367099964911,space,0.300378667216,space,0.33374819755,space,0.300428008821,j,1,2.40064712502,SPR,11,A,,m,60.0051872391,001,2017_01_09_0810,
村民擔心刺客襲擊的鐵匠,刺客襲擊了鐵匠？,的,襲擊,鐵匠,村民,刺客,f,擔心,11,2,39,0,4,4,14,space,0.333777802512,space,0.500435587692,space,0.450439120552,space,0.350421712832,space,0.333754513278,space,0.367113385826,space,0.633805552232,f,1,2.7003365887,SPR,11,A,,m,60.0051872391,001,2017_01_09_0810,
小李暗戀船長招待的賓客,船長招待過賓客？,的,招待,賓客,小李,船長,f,暗戀,11,2,37,0,5,5,12,space,0.350516843449,space,0.383626244839,space,0.400474232039,space,0.283734362165,space,0.400583573035,space,0.317104681966,space,0.350365660772,f,1,1.50049400816,SPR,11,A,,m,60.0051872391,001,2017_01_09_0810,
警察逮捕了正在逃跑的罪犯,罪犯正在逃跑？,的,逃跑,罪犯,警察,正在,f,逮捕了,12,3,1,0,6,6,16,space,0.300426824622,space,0.367088517654,space,0.350588684825,space,0.283802256214,space,0.316990604177,space,0.250393647326,space,0.300378272485,f,1,1.53377077627,SPR,11,A,,m,60.0051872391,001,2017_01_09_0810,
強盜綁架主人誣陷的管家,強盜綁架主人？,的,誣陷,管家,強盜,主人,j,綁架,11,2,34,0,7,7,9,space,0.433743105499,space,0.467077504607,space,0.550419423384,space,0.533672882524,space,0.417147747317,space,1.21734345586,space,0.584790785673,j,1,1.20066362486,SPR,11,A,,m,60.0051872391,001,2017_01_09_0810,
助教嫌棄局長愛慕的學生,助教嫌棄學生？,的,愛慕,學生,助教,局長,f,嫌棄,11,2,33,0,8,8,8,space,0.550529553842,space,0.333672014112,space,0.300476166227,space,0.300429587751,space,0.417145773652,space,0.31712994487,space,0.350476975429,f,1,3.01710495828,SPR,11,A,,m,60.0051872391,001,2017_01_09_0810,
外婆檢舉嬸嬸救治的鄰居,嬸嬸沒救鄰居？,的,救治,鄰居,外婆,嬸嬸,j,檢舉,11,2,38,0,9,9,13,space,0.333780960376,space,0.533979589942,space,0.333568199378,space,0.283785677435,space,0.317088497919,space,0.317065603413,space,0.567053070648,j,1,1.65013683414,SPR,11,A,,m,60.0051872391,001,2017_01_09_0810,
傳統小說有很多精華的部分,小說沒有精華？,的,精華,部分,傳統小說,很多 ,j,有 ,12,3,6,0,10,10,21,space,0.300353009581,space,0.417139457928,space,0.317187575863,space,0.283799887817,space,0.217058458751,space,0.317142576318,space,0.333828328319,j,1,2.48377825645,SPR,11,A,,m,60.0051872391,001,2017_01_09_0810,
敵人搜查戰士掩護的村民,戰士沒掩護村民？,的,掩護,村民,敵人,戰士,j,搜查,11,2,40,0,11,11,15,space,0.283872123928,space,0.283725678044,space,0.283778572244,space,0.283677915369,space,0.30047063997,space,0.317084155857,space,0.333709513732,j,1,1.81727579865,SPR,11,A,,m,60.0051872391,001,2017_01_09_0810,
粉絲大罵羞辱小周的導演,粉絲大罵導演？,的,小周,導演,粉絲,羞辱,f,大罵,11,1,5,0,12,12,4,space,0.267152424905,space,0.25007430846,space,0.300703927078,space,0.267066373144,space,0.250314306028,space,0.333707934798,space,0.267090057114,f,1,4.15055189573,SPR,11,A,,m,60.0051872391,001,2017_01_09_0810,
小劉愛慕欽佩領隊的組長,小劉討厭組長？,的,領隊,組長,小劉,欽佩,j,愛慕,11,1,6,0,13,13,5,space,0.333817670529,space,0.53377393413,space,0.450321884895,space,0.383819663934,space,0.68385136098,space,0.333699645409,space,0.30036800943,j,1,3.1004606927,SPR,11,A,,m,60.0051872391,001,2017_01_09_0810,
校長相信厭惡房東的小孩,小孩相信校長？,的,房東,小孩,校長,厭惡,j,相信,11,1,2,0,14,14,1,space,0.300340772865,space,0.383848874164,space,0.283756861936,space,0.300393667065,space,0.383889136912,space,1.28399251744,space,1.36722272683,j,1,2.7670989386,SPR,11,A,,m,60.0051872391,001,2017_01_09_0810,
小紅取笑崇拜小張的作家,小紅取笑作家？,的,小張,作家,小紅,崇拜,f,取笑,11,1,1,0,15,15,0,space,0.350314740233,space,0.383625455372,space,0.483830755926,space,1.40038344348,space,1.21707266913,space,0.600447469151,space,0.600533915644,j,0,2.28377580911,SPR,11,A,,m,60.0051872391,001,2017_01_09_0810,
商人質疑小陳賄賂的企劃員,商人質疑小陳？,的,賄賂,企劃員,商人,小陳,j,質疑,12,2,36,0,16,16,11,space,0.300469061036,space,0.449912152206,space,0.60041983785,space,1.31676915905,space,0.316791658821,space,0.5504063972,space,0.483844176841,j,1,1.26728781827,SPR,11,A,,m,60.0051872391,001,2017_01_09_0810,
證人揭發搶匪指使的殺手,證人揭發殺手？,的,指使,殺手,證人,搶匪,f,揭發,11,2,35,0,17,17,10,space,0.300692085093,space,0.433829551992,space,0.583689875773,space,0.950404186697,space,1.91718544431,space,0.350434739019,space,0.550479422775,j,0,2.91726044354,SPR,11,A,,m,60.0051872391,001,2017_01_09_0810,
名嘴毀謗賞識徐總的詩人,名嘴稱讚詩人？,的,徐總,詩人,名嘴,賞識,j,毀謗,11,1,8,0,18,18,7,space,0.317086918989,space,0.450565435061,space,0.400311602105,space,2.26719663498,space,1.35054289582,space,0.333829117786,space,0.316798764012,j,1,1.8337661579,SPR,11,A,,m,60.0051872391,001,2017_01_09_0810,
茶餐廳裡有很多好吃的甜點,餐廳裡有甜點？,的,好吃,甜點,茶餐廳裡,很多,f,有,12,3,5,0,19,19,20,space,0.367202990183,space,0.517245285806,space,0.46716079324,space,0.367158385368,space,0.333631751364,space,0.300364456834,space,0.517153707784,f,1,0.900438903445,SPR,11,A,,m,60.0051872391,001,2017_01_09_0810,
老師這次沒有劃考試的重點,老師劃了重點？,的,劃考試,重點,老師,沒有,j,這次,12,3,4,0,20,20,19,space,0.383779795913,space,0.433798368096,space,0.600466416327,space,0.450439120552,space,0.883834071683,space,0.35044500207,space,0.416899065629,j,1,3.50044703494,SPR,11,A,,m,60.0051872391,001,2017_01_09_0810,
究竟存不存在外星人仍是個謎,外星人是個謎？,是個,仍,謎,究竟,外星人,f,存不存在,13,3,3,0,21,21,18,space,0.350486449017,space,0.466810270478,space,0.417193141599,space,0.467064083696,space,0.450587540101,space,0.383796769427,space,0.417068800751,f,1,1.6672019244,SPR,11,A,,m,60.0051872391,001,2017_01_09_0810,
村民援助舉薦小潘的水手,村民援助水手？,的,小潘,水手,村民,舉薦,f,援助,11,1,7,0,22,22,6,space,0.367112201624,space,0.567083465077,space,0.55042021285,space,0.817108431929,space,1.45051846185,space,0.667205082264,space,0.950406160358,f,1,1.68380320357,SPR,11,A,,m,60.0051872391,001,2017_01_09_0810,
司機們大部分都比較好說話,司機討厭說話？,好,比較,說話,司機們,都,j,大部分,12,3,2,0,23,23,17,space,0.366852467414,space,0.367056939027,space,0.383590324149,space,0.350319477024,space,0.333769513123,space,0.367014307878,space,0.350444212603,j,1,3.5839677677,SPR,11,A,,m,60.0051872391,001,2017_01_09_0810,
