Sentences,Question,word5,word4,word6,word1,word3,Ans,word2,lenth,Type,ID,practicetrials.thisRepN,practicetrials.thisTrialN,practicetrials.thisN,practicetrials.thisIndex,key_resp_12.keys,key_resp_12.rt,Atests1.keys,Atests1.rt,Atests2.keys,Atests2.rt,Atests3.keys,Atests3.rt,Atests4.keys,Atests4.rt,Atests5.keys,Atests5.rt,Atests6.keys,Atests6.rt,key_resp_8.keys,key_resp_8.corr,key_resp_8.rt,expName,participant,version,Grade,Gender,frameRate,session,date,
外婆感激協助叔叔的警察,外婆感激警察？,的,叔叔,警察,外婆,協助,f,感激,11,1,31,0,0,0,6,space,1.82939630022,space,0.540944503366,space,0.724173229057,space,0.520606253624,space,0.663333944249,space,0.666036216579,space,0.609835321826,f,1,1.74775787111,SPR,19,A,,m,60.0603434729,001,2017_01_11_0905,
海關扣留空服員侮辱的旅客,海關扣留空服員？,的,侮辱,旅客,海關,空服員,j,扣留,12,2,58,0,1,1,9,space,0.883405992834,space,0.743716480734,space,0.744770168647,space,0.671458788398,space,0.844518990118,space,0.767152098211,space,1.06038379839,j,1,2.37349135147,SPR,19,A,,m,60.0603434729,001,2017_01_11_0905,
上司懲罰小明責罵的管理員,上司懲罰管理員？,的,責罵,管理員,上司,小明,f,懲罰,12,2,59,0,2,2,10,space,0.467166519949,space,0.645891157976,space,0.704164876464,space,0.611333078945,space,0.694528754837,space,0.650430699061,space,1.14072877827,f,1,1.20745904077,SPR,19,A,,m,60.0603434729,001,2017_01_11_0905,
朋友毆打碰見駕駛員的盜賊,朋友幫助盜賊？,的,駕駛員,盜賊,朋友,碰見,j,毆打,12,1,32,0,3,3,7,space,0.717274833172,space,0.678861644497,space,0.74182422911,space,0.594558499659,space,0.624207781126,space,0.700454284612,space,1.51025445347,j,1,1.21917669928,SPR,19,A,,m,60.0603434729,001,2017_01_11_0905,
弟弟花光了所有的零花錢,弟弟還有零花錢？,的,所有,零花錢,弟弟,光了,j,花,11,3,30,0,4,4,21,space,0.567186950728,space,0.712120565695,space,0.748426979459,space,0.731893663753,space,0.729464803459,space,0.633900988789,space,0.702118192115,j,1,1.40678752881,SPR,19,A,,m,60.0603434729,001,2017_01_11_0905,
法官偏袒代理商詆毀的律師,代理商詆毀律師？,的,詆毀,律師,法官,代理商,f,偏袒,12,2,61,0,5,5,12,space,0.48386358242,space,0.790700085025,space,0.659451192943,space,0.607230997113,space,0.693919436591,space,0.717282044039,space,1.14031535524,f,1,3.73720687076,SPR,19,A,,m,60.0603434729,001,2017_01_11_0905,
導演無視業務員撞見的藝人,業務員撞見藝人？,的,撞見,藝人,導演,業務員,f,無視,12,2,63,0,6,6,14,space,0.483920067541,space,0.627365239416,space,0.710224708637,space,0.573588097264,space,0.627081912447,space,0.767155703645,space,1.04804630578,f,1,1.89901661804,SPR,19,A,,m,60.0603434729,001,2017_01_11_0905,
警衛攔住治療師責備的婦女,治療師沒責備婦女？,的,責備,婦女,警衛,治療師,j,攔住,12,2,62,0,7,7,13,space,0.550042514064,space,0.677892984728,space,0.574422454643,space,0.556420525732,space,0.814011014598,space,0.833812355217,space,1.22740369738,j,1,2.43431020548,SPR,19,A,,m,60.0603434729,001,2017_01_11_0905,
聖誕節是個令人快樂的節日,聖誕節讓人快樂？,的,快樂,節日,聖誕節,令人,f,是個,12,3,25,0,8,8,16,space,0.450659944538,space,0.694512530383,space,0.562924727565,space,0.693786035561,space,0.66051509625,space,0.633825575147,space,0.747189714901,f,1,1.86108385336,SPR,19,A,,m,60.0603434729,001,2017_01_11_0905,
小明認識大姑姑捧紅的明星,小明認識大姑姑？,的,捧紅,明星,小明,大姑姑,j,認識,12,2,60,0,9,9,11,space,0.467174331716,space,0.533802740727,space,0.677980716937,space,0.728885230041,space,0.844979584232,space,0.683922771612,space,0.995754902637,j,1,2.04003803732,SPR,19,A,,m,60.0603434729,001,2017_01_11_0905,
大叔喜歡親近孩子的阿姨,大叔喜歡阿姨？,的,孩子,阿姨,大叔,親近,f,喜歡,11,1,27,0,10,10,2,space,1.41655615012,space,0.697617709891,space,0.735501801217,space,0.643636860754,space,0.761858420643,space,0.716403219652,space,0.626478302802,f,1,1.1247660224,SPR,19,A,,m,60.0603434729,001,2017_01_11_0905,
教授排斥小林支持的研究員,小林不支持研究員？,的,支持,研究員,教授,小林,j,排斥,12,2,64,0,11,11,15,space,0.617238478386,space,0.661604538036,space,0.674897770943,space,1.06065420589,space,0.910598471892,space,0.750420483673,space,1.25731827864,j,1,2.15308610076,SPR,19,A,,m,60.0603434729,001,2017_01_11_0905,
政府豁免檢舉犯人的同伴,同伴豁免政府？,的,犯人,同伴,政府,檢舉,j,豁免,11,1,26,0,12,12,1,space,0.533863732649,space,0.670916771574,space,0.725590464826,space,0.825757516577,space,0.843352031516,space,0.867073980487,space,1.01295402171,j,1,2.64010804282,SPR,19,A,,m,60.0603434729,001,2017_01_11_0905,
他一邊寫作業一邊看著電視,他沒在看電視？,看著,一邊,電視,他,寫作業,j,一邊,12,3,26,0,13,13,17,space,0.583881309132,space,0.529775772084,space,0.641087518889,space,0.673774978888,space,0.681074479238,space,0.66236798856,space,0.709028606114,j,1,1.11674934126,SPR,19,A,,m,60.0603434729,001,2017_01_11_0905,
孩子們快樂地享受著陽光,孩子們喜歡陽光？,著,享受,陽光,孩子們,的,f,快樂,11,3,31,0,14,14,22,space,0.450497099133,space,0.660921007955,space,0.633771493638,space,0.683837743476,space,0.704235482874,space,0.616868320561,space,0.626570842265,f,1,3.16973479032,SPR,19,A,,m,60.0603434729,001,2017_01_11_0905,
家長們準備了豐盛的晚餐,晚餐沒有東西吃？,的,豐盛,晚餐,家長們,了,j,準備,11,3,32,0,15,15,23,space,0.517163064738,space,0.640824322254,space,0.666370019622,space,0.750148573905,space,0.789622961798,space,0.550360994013,space,0.692197241238,j,1,1.62370001592,SPR,19,A,,m,60.0603434729,001,2017_01_11_0905,
鄰居尊敬信任市民的委員,委員尊敬鄰居？,的,市民,委員,鄰居,信任,j,尊敬,11,1,28,0,16,16,3,space,0.400580174326,space,0.658702464614,space,0.760857912879,space,0.911406990337,space,0.720858633962,space,0.783801388694,space,0.859193704913,j,1,1.78964940165,SPR,19,A,,m,60.0603434729,001,2017_01_11_0905,
助手賄賂批評小吳的評論家,助手賄賂評論家？,的,小吳,評論家,助手,批評,f,賄賂,12,1,29,0,17,17,4,space,0.467195062956,space,0.512794180831,space,0.585519978609,space,0.560226661575,space,0.576318612148,space,0.667140681006,space,0.674920304897,f,1,1.60851002461,SPR,19,A,,m,60.0603434729,001,2017_01_11_0905,
律師帮助惹怒上尉的服務員,律師無視服務員？,的,上尉,服務員,律師,惹怒,j,幫助,12,1,30,0,18,18,5,space,0.467098918074,space,0.598469493525,space,0.665282680995,space,0.758181479483,space,0.775772088542,space,0.917145037572,space,1.01252737876,j,1,2.50196466075,SPR,19,A,,m,60.0603434729,001,2017_01_11_0905,
今天爸爸買了一籃新鮮的水果,爸爸買了水果？,的,新鮮,各種水果,今天,買了,f,爸爸,13,3,27,0,19,19,18,space,0.433764282774,space,0.56089667129,space,0.663443609519,space,0.792641610911,space,0.708827002287,space,0.900410118047,space,1.41930288945,f,1,1.2409646337,SPR,19,A,,m,60.0603434729,001,2017_01_11_0905,
參加國際會議是令人高興的事,參會不值得高興？,的,令人高興,事,參加,是,j,國際會議,13,3,28,0,20,20,19,space,0.450566503721,space,0.57607494494,space,0.886129897757,space,0.53325801983,space,0.583677602146,space,0.60056995893,space,0.763203547744,j,1,2.26656200895,SPR,19,A,,m,60.0603434729,001,2017_01_11_0905,
店長錯怪熟悉顧客的職工,店長錯怪職工？,的,顧客,職工,店長,熟悉,f,錯怪,11,1,25,0,21,21,0,space,0.617056404,space,0.708885891043,space,0.792581219903,space,0.773049986332,space,0.775452106325,space,0.717166069262,space,0.910726464783,f,1,2.13572984488,SPR,19,A,,m,60.0603434729,001,2017_01_11_0905,
群眾反感主播討好的發言人,群眾反感發言人？,的,討好,發言人,群眾,主播,f,反感,12,2,57,0,22,22,8,space,0.450513023126,space,0.627426531784,space,0.776859727608,space,0.745410733973,space,0.775400428443,space,0.833241194479,space,0.90618121509,f,1,2.353863973,SPR,19,A,,m,60.0603434729,001,2017_01_11_0905,
鄉村的風景迷人且空氣新鮮,鄉村的風景很好？,空氣,且,新鮮,鄉村的,迷人,f,風景,12,3,29,0,23,23,20,space,0.467330567168,space,0.804243895553,space,0.675959871522,space,0.725877697696,space,0.714492940868,space,0.856710462664,space,0.967308634114,f,1,2.2140167232,SPR,19,A,,m,60.0603434729,001,2017_01_11_0905,
助教嫌棄局長愛慕的學生,助教嫌棄學生？,的,愛慕,學生,助教,局長,f,嫌棄,11,2,33,0,0,0,8,space,2.35395050341,space,0.56375547951,space,0.705068938893,space,0.741990679955,space,0.791808154885,space,0.766795160307,space,0.927162433785,f,1,2.15457814928,SPR,19,A,,m,60.0603434729,001,2017_01_11_0905,
茶餐廳裡有很多好吃的甜點,餐廳裡有甜點？,的,好吃,甜點,茶餐廳裡,很多,f,有,12,3,5,0,1,1,20,space,0.467246440392,space,1.30291739652,space,0.566713136694,space,0.64440271489,space,0.547785212315,space,0.667159909986,space,0.727808707728,f,1,1.43776150659,SPR,19,A,,m,60.0603434729,001,2017_01_11_0905,
老師這次沒有劃考試的重點,老師劃了重點？,的,劃考試,重點,老師,沒有,j,這次,12,3,4,0,2,2,19,space,0.650587234966,space,1.12596062266,space,0.564489786106,space,0.64853063567,space,0.762276050002,space,0.63449167896,space,0.74268442543,j,1,0.983480505121,SPR,19,A,,m,60.0603434729,001,2017_01_11_0905,
小劉愛慕欽佩領隊的組長,小劉討厭組長？,的,領隊,組長,小劉,欽佩,j,愛慕,11,1,6,0,3,3,5,space,0.500667305627,space,1.15871808816,space,0.632622862657,space,0.742552526659,space,0.72680429407,space,0.700492442113,space,0.809037619692,j,1,1.56794228903,SPR,19,A,,m,60.0603434729,001,2017_01_11_0905,
證人揭發搶匪指使的殺手,證人揭發殺手？,的,指使,殺手,證人,搶匪,f,揭發,11,2,35,0,4,4,10,space,0.450557189688,space,0.608616685349,space,0.776623571728,space,0.758904068432,space,0.710757711866,space,0.833725524368,space,0.925473588701,f,1,2.58612629233,SPR,19,A,,m,60.0603434729,001,2017_01_11_0905,
商人質疑小陳賄賂的企劃員,商人質疑小陳？,的,賄賂,企劃員,商人,小陳,j,質疑,12,2,36,0,5,5,11,space,0.633900688335,space,0.881244835968,space,0.874635776112,space,0.941814314174,space,1.01709095607,space,0.983750311716,space,0.89101105366,j,1,1.90182344793,SPR,19,A,,m,60.0603434729,001,2017_01_11_0905,
司機們大部分都比較好說話,司機討厭說話？,好,比較,說話,司機們,都,j,大部分,12,3,2,0,6,6,17,space,1.65022909525,space,0.622758096455,space,0.907734255525,space,1.24750519032,space,0.737570418627,space,0.766497411598,space,0.676751865059,j,1,1.51494331958,SPR,19,A,,m,60.0603434729,001,2017_01_11_0905,
傳統小說有很多精華的部分,小說沒有精華？,的,精華,部分,傳統小說,很多 ,j,有 ,12,3,6,0,7,7,21,space,0.60048372898,space,0.547752763421,space,0.530022143372,space,0.527395885598,space,0.526173343227,space,0.516831965775,space,0.565944878937,j,1,0.770354023516,SPR,19,A,,m,60.0603434729,001,2017_01_11_0905,
校長相信厭惡房東的小孩,小孩相信校長？,的,房東,小孩,校長,厭惡,j,相信,11,1,2,0,8,8,1,space,0.450638912836,space,0.52526958126,space,0.596972036859,space,0.540084006599,space,0.677016263508,space,0.717136023988,space,0.814653382651,j,1,1.41428622934,SPR,19,A,,m,60.0603434729,001,2017_01_11_0905,
村民援助舉薦小潘的水手,村民援助水手？,的,小潘,水手,村民,舉薦,f,援助,11,1,7,0,9,9,6,space,0.417168172433,space,0.731691759487,space,0.941322773419,space,0.667247341742,space,0.734043403405,space,0.717137826708,space,0.829314577066,f,1,2.63273733516,SPR,19,A,,m,60.0603434729,001,2017_01_11_0905,
公園裡擠滿了玩鬧的小孩,公園裡有小孩？,的,玩鬧,小孩,公園裡,滿了,f,擠,11,3,7,0,10,10,22,space,0.467211587864,space,0.813937403669,space,0.645752348792,space,0.475814151927,space,0.657556237245,space,0.483827227632,space,0.497832533627,f,1,1.05403673336,SPR,19,A,,m,60.0603434729,001,2017_01_11_0905,
老師調查傷害弟弟的同學,同學調查老師？,的,弟弟,同學,老師,傷害,j,調查,11,1,4,0,11,11,3,space,0.41729316079,space,0.52995814693,space,0.508422292391,space,0.543621237201,space,0.682218002526,space,0.667158708173,space,0.662642902855,j,1,1.06872797306,SPR,19,A,,m,60.0603434729,001,2017_01_11_0905,
警察逮捕了正在逃跑的罪犯,罪犯正在逃跑？,的,逃跑,罪犯,警察,正在,f,逮捕了,12,3,1,0,12,12,16,space,0.400761046898,space,0.449547668337,space,0.453283798684,space,0.494844230256,space,0.474120800041,space,0.450493193239,space,0.658916387001,f,1,1.23590290568,SPR,19,A,,m,60.0603434729,001,2017_01_11_0905,
敵人搜查戰士掩護的村民,戰士沒掩護村民？,的,掩護,村民,敵人,戰士,j,搜查,11,2,40,0,13,13,15,space,0.417229765255,space,0.459654299033,space,0.810974338325,space,0.948268941298,space,0.776295477284,space,0.750458641174,space,0.780848538743,j,1,2.44841105546,SPR,19,A,,m,60.0603434729,001,2017_01_11_0905,
強盜綁架主人誣陷的管家,強盜綁架主人？,的,誣陷,管家,強盜,主人,j,綁架,11,2,34,0,14,14,9,space,0.449495990462,space,0.65476743452,space,0.859536521537,space,0.962973100461,space,1.1754554113,space,0.717242083825,space,0.6815506969,j,1,3.33264449525,SPR,19,A,,m,60.0603434729,001,2017_01_11_0905,
王董賞識表揚工人的廠長,王董賞識廠長？,的,工人,廠長,王董,表揚,f,賞識,11,1,3,0,15,15,2,space,0.467151196855,space,0.559258903173,space,0.641025024706,space,0.670173451392,space,0.730010425716,space,1.06713467195,space,0.824702326405,f,1,2.93681327761,SPR,19,A,,m,60.0603434729,001,2017_01_11_0905,
村民擔心刺客襲擊的鐵匠,刺客襲擊了鐵匠？,的,襲擊,鐵匠,村民,刺客,f,擔心,11,2,39,0,16,16,14,space,0.383941700144,space,0.431845891755,space,0.559223149285,space,0.509269869697,space,0.540923772125,space,0.517337928257,space,1.10766034414,f,1,2.9832515601,SPR,19,A,,m,60.0603434729,001,2017_01_11_0905,
名嘴毀謗賞識徐總的詩人,名嘴稱讚詩人？,的,徐總,詩人,名嘴,賞識,j,毀謗,11,1,8,0,17,17,7,space,0.433906697392,space,0.613045359351,space,0.826462679252,space,1.1459578585,space,0.75926881811,space,0.700596398776,space,1.10856200294,f,0,2.83754037334,SPR,19,A,,m,60.0603434729,001,2017_01_11_0905,
叔叔有很多棟房子和別墅,叔叔沒有房子？,和,房子,別墅,叔叔,很多棟,j,有,11,3,8,0,18,18,23,space,0.999889433377,space,1.06663021172,space,0.700440163324,space,0.955626729483,space,0.842592787332,space,0.777215163253,space,0.64308733261,j,1,0.916101264607,SPR,19,A,,m,60.0603434729,001,2017_01_11_0905,
究竟存不存在外星人仍是個謎,外星人是個謎？,是個,仍,謎,究竟,外星人,f,存不存在,13,3,3,0,19,19,18,space,0.583880708225,space,0.616365062153,space,0.889215848285,space,0.810315445378,space,0.882091511907,space,0.782192464045,space,0.695179535564,f,1,1.61778079566,SPR,19,A,,m,60.0603434729,001,2017_01_11_0905,
粉絲大罵羞辱小周的導演,粉絲大罵導演？,的,小周,導演,粉絲,羞辱,f,大罵,11,1,5,0,20,20,4,space,0.650506413163,space,0.809518644593,space,1.21505298485,space,1.09196288807,space,0.943959547032,space,0.933139941888,space,0.949589731725,f,1,2.48436984536,SPR,19,A,,m,60.0603434729,001,2017_01_11_0905,
小李暗戀船長招待的賓客,船長招待過賓客？,的,招待,賓客,小李,船長,f,暗戀,11,2,37,0,21,21,12,space,1.45043160042,space,1.12392805959,space,0.87489837184,space,0.692247416853,space,0.643876321621,space,0.71718019055,space,0.708545177586,f,1,1.61143853788,SPR,19,A,,m,60.0603434729,001,2017_01_11_0905,
外婆檢舉嬸嬸救治的鄰居,嬸嬸沒救鄰居？,的,救治,鄰居,外婆,嬸嬸,j,檢舉,11,2,38,0,22,22,13,space,0.533810552501,space,0.666117639281,space,0.617114391389,space,0.993317329216,space,0.658474721407,space,0.750358890851,space,0.782646147745,j,1,1.56942171853,SPR,19,A,,m,60.0603434729,001,2017_01_11_0905,
小紅取笑崇拜小張的作家,小紅取笑作家？,的,小張,作家,小紅,崇拜,f,取笑,11,1,1,0,23,23,0,space,0.450399451976,space,0.696613596687,space,0.57519912508,space,0.693585934001,space,0.642122278274,space,1.01703296869,space,0.81353119151,f,1,1.9818631678,SPR,19,A,,m,60.0603434729,001,2017_01_11_0905,
同伴欺負取笑小郭的廚師,同伴關心廚師？,的,小郭,廚師,同伴,取笑,j,欺負,11,1,22,0,0,0,5,space,0.53783211299,space,0.764419179701,space,0.754839543188,space,0.817003824763,space,0.809888802425,space,1.08384795887,space,0.973574276431,j,1,1.66820548566,SPR,19,A,,m,60.0603434729,001,2017_01_11_0905,
大腦裡的奧秘等著你們去解開,大腦里有奧妙？,你們,等著,去解開,大腦裡,奧秘,f,的,13,3,19,0,1,1,18,space,0.91706451623,space,1.33724532872,space,0.816231060213,space,0.691916017437,space,0.693286683032,space,0.559329810021,space,0.718296673083,f,1,1.24199218221,SPR,19,A,,m,60.0603434729,001,2017_01_11_0905,
贊助商支持貴族拉攏的青年,貴族排斥青年？,的,拉攏,青年,贊助商,貴族,j,支持,12,2,54,0,2,2,13,space,0.633827978767,space,0.672476722415,space,0.815448080255,space,0.743091238503,space,0.709813989684,space,1.10003184799,space,1.05703615348,j,1,2.45496182748,SPR,19,A,,m,60.0603434729,001,2017_01_11_0905,
有人明年要在高雄舉辦演唱會,明年有演唱會？,舉辦,高雄,演唱會,有人,要在,f,明年,13,3,17,0,3,3,16,space,0.833795830316,space,1.344414733,space,0.846453906037,space,0.757953736276,space,0.727642256883,space,0.726399283718,space,0.75392165994,f,1,1.3006471753,SPR,19,A,,m,60.0603434729,001,2017_01_11_0905,
青年佩服小謝督促的技術員,青年佩服小謝？,的,督促,技術員,青年,小謝,j,佩服,12,2,50,0,4,4,9,space,0.750269055468,space,0.848904098479,space,1.04631239278,space,1.27998233338,space,1.02335930247,space,0.650327643758,space,1.36853267875,j,1,2.08218044593,SPR,19,A,,m,60.0603434729,001,2017_01_11_0905,
許多古生物學家著迷於恐龍,學者討厭恐龍？,於,著迷,恐龍,許多,生物學家,j,古,12,3,22,0,5,5,21,space,1.74964771912,space,1.32729012622,space,0.763018468831,space,0.836901009825,space,0.762353566824,space,0.69824295213,space,0.616925707043,j,1,1.14713593385,SPR,19,A,,m,60.0603434729,001,2017_01_11_0905,
外婆批評辱罵農夫的木匠,外婆批評木匠？,的,農夫,木匠,外婆,辱罵,f,批評,11,1,19,0,6,6,2,space,0.73375466829,space,1.49881050744,space,0.666133863728,space,0.880621396442,space,0.869929483735,space,0.833428376558,space,0.692920731541,f,1,2.73837322845,SPR,19,A,,m,60.0603434729,001,2017_01_11_0905,
雨後有時會見到漂亮的彩虹,雨後可能現彩虹？,的,漂亮,彩虹,雨後,會見到,f,有時,12,3,21,0,7,7,20,space,0.483865685586,space,0.843200903764,space,0.793166802367,space,1.14137535266,space,0.945783595875,space,0.833817462917,space,0.576630782591,f,1,1.05913932296,SPR,19,A,,m,60.0603434729,001,2017_01_11_0905,
媽媽討厭小白忽視的企業家,小白忽視企業家？,的,忽視,企業家,媽媽,小白,f,討厭,12,2,55,0,8,8,14,space,0.750405160572,space,0.628370253973,space,1.48139295919,space,1.08100687736,space,1.0746453906,space,1.0670153922,space,1.61001829758,f,1,2.79234476355,SPR,19,A,,m,60.0603434729,001,2017_01_11_0905,
偵探跟蹤迷戀老婆的編輯,偵探跟蹤編輯？,的,老婆,編輯,偵探,迷戀,f,跟蹤,11,1,17,0,9,9,0,space,0.767090505389,space,1.00829429951,space,1.30196075486,space,0.997604489967,space,0.796715750635,space,0.93374084746,space,0.937483587768,f,1,1.50874317596,SPR,19,A,,m,60.0603434729,001,2017_01_11_0905,
老闆責罵同情雇主的技工,技工責罵老闆？,的,雇主,技工,老闆,同情,j,責罵,11,1,18,0,10,10,1,space,0.483879806874,space,1.01053026912,space,1.23309877986,space,1.16661879452,space,1.05847051507,space,1.167064366,space,0.830445781794,j,1,4.20190336838,SPR,19,A,,m,60.0603434729,001,2017_01_11_0905,
夏天是個非常美麗的季節,夏天是個好季節？,的,美麗,季節,夏天,非常,f,是個,11,3,23,0,11,11,22,space,0.500513173356,space,0.893732554956,space,0.59992638907,space,0.588224053652,space,0.646616751445,space,0.68383564031,space,0.692331844089,f,1,0.934859132714,SPR,19,A,,m,60.0603434729,001,2017_01_11_0905,
如果天氣好的話我就去野餐,天氣好也不野餐？,就,我,去野餐,如果,的話,j,天氣好,12,3,24,0,12,12,23,space,0.467263265738,space,0.563614266699,space,0.593126842148,space,0.596216999016,space,0.546074434169,space,0.498205095078,space,0.721951681189,j,1,2.77060910793,SPR,19,A,,m,60.0603434729,001,2017_01_11_0905,
鄰居告發砍傷表弟的疑犯,鄰居告發疑犯？,的,表弟,疑犯,鄰居,砍傷,f,告發,11,1,21,0,13,13,4,space,0.533876652116,space,0.567038226611,space,0.57453482398,space,0.575041387368,space,0.596141885821,space,0.700237357698,space,0.5804390216,f,1,1.98631437576,SPR,19,A,,m,60.0603434729,001,2017_01_11_0905,
小張欽佩隊長袒護的消防員,校長欽佩隊長？,的,袒護,消防員,小張,隊長,j,欽佩,12,2,52,0,14,14,11,space,0.383868089215,space,0.664069152212,space,1.06600707266,space,0.811846552751,space,0.980799564946,space,0.950419882764,space,0.785000495744,j,1,2.63619224171,SPR,19,A,,m,60.0603434729,001,2017_01_11_0905,
阿姨看見交警驅趕的行政人員,交警驅趕行政人員？,的,驅趕,行政人員,阿姨,交警,f,看見,13,2,53,0,15,15,12,space,1.01703116597,space,0.700053180139,space,0.747255814509,space,0.707895298219,space,0.711707743569,space,0.833775399529,space,0.585379967612,f,1,1.45565046525,SPR,19,A,,m,60.0603434729,001,2017_01_11_0905,
哥哥的體育特長是打羽毛球,哥哥不會打羽毛球？,是,特長,打羽毛球,哥哥,體育,j,的,12,3,18,0,16,16,17,space,0.617230366159,space,0.645828663794,space,1.71658980082,space,0.797725872893,space,0.771063392538,space,0.933469238138,space,0.786375968586,j,1,0.983622318832,SPR,19,A,,m,60.0603434729,001,2017_01_11_0905,
刑警緝拿政府輕視的逃亡者,政府重視逃亡者？,的,輕視,逃亡者,刑警,政府,j,緝拿,12,2,56,0,17,17,15,space,0.633882661168,space,0.625593769808,space,0.82585396192,space,0.597447052707,space,0.65726329579,space,0.81713061584,space,0.854412599794,j,1,1.4656014614,SPR,19,A,,m,60.0603434729,001,2017_01_11_0905,
小王關注航海家資助的演員,小王關注演員？,的,資助,演員,小王,航海家,f,關注,12,2,51,0,18,18,10,space,0.500171858992,space,0.734134140155,space,0.643939416703,space,1.17090926025,space,0.842149018572,space,0.917050995849,space,0.979412674904,f,1,1.33213132191,SPR,19,A,,m,60.0603434729,001,2017_01_11_0905,
妹妹的個性一向是冷冰冰的,妹妹個性熱情？,是,一向,冷冰冰的,妹妹,個性,j,的,11,3,20,0,19,19,19,space,0.450551180627,space,0.47833404941,space,0.683459172978,space,0.591053417498,space,0.527746814449,space,0.48332276741,space,0.603783902341,j,1,0.936015575477,SPR,19,A,,m,60.0603434729,001,2017_01_11_0905,
治療師開導小崔照顧的飛行員,治療師開導飛行員？,的,照顧,飛行員,治療師,小崔,f,開導,13,2,49,0,20,20,8,space,0.384058876727,space,0.730892555075,space,0.815863906908,space,0.691678659736,space,0.760223657053,space,0.8334701395,space,0.803214243868,f,1,1.23450249526,SPR,19,A,,m,60.0603434729,001,2017_01_11_0905,
妹妹迷戀結識表哥的中醫師,中醫師迷戀妹妹？,的,表哥,中醫師,妹妹,結識,j,迷戀,12,1,20,0,21,21,3,space,0.51713241855,space,0.516280935364,space,0.879749482468,space,0.814229744225,space,0.846470731391,space,0.817176284654,space,0.78924348994,j,1,1.62976435488,SPR,19,A,,m,60.0603434729,001,2017_01_11_0905,
科學家協助熟識表姐的院士,科學家排斥院士？,的,表姐,院士,科學家 ,熟識,j,協助,12,1,24,0,22,22,7,space,0.450483879205,space,0.51634403046,space,0.61410806085,space,0.629215427645,space,0.590990322416,space,0.701841775553,space,0.557717580392,j,1,1.38396603682,SPR,19,A,,m,60.0603434729,001,2017_01_11_0905,
主任指責嘲笑上司的會計,主任指責會計？,的,上司,會計,主任,嘲笑,f,指責,11,1,23,0,23,23,6,space,0.417262514609,space,0.563299692636,space,0.664627093029,space,0.508337564715,space,0.499686026844,space,0.41739771836,space,0.569833639296,f,1,1.05218624467,SPR,19,A,,m,60.0603434729,001,2017_01_11_0905,
王總讚賞維護隊員的教練,王總讚賞教練？,的,隊員,教練,王總,維護,f,讚賞,11,1,15,0,0,0,6,space,1.61140759124,space,2.04728736205,space,1.34581514342,space,1.00567645442,space,1.14487502666,space,0.833773296356,space,1.05742644165,f,1,1.00412852169,SPR,19,A,,m,60.0603434729,001,2017_01_11_0905,
爺爺羨慕拜訪總統的老人,爺爺羨慕老人？,的,總統,老人,爺爺,拜訪,f,羨慕,11,1,11,0,1,1,2,space,0.400558541725,space,1.14461543546,space,0.758217834278,space,1.34506671553,space,0.763663841411,space,0.683870492838,space,0.678301900967,f,1,0.687531509982,SPR,19,A,,m,60.0603434729,001,2017_01_11_0905,
李老師今天看上去很不舒服,老師今天不舒服？,很,上去,不舒服,李老師,看,f,今天,12,3,9,0,2,2,16,space,0.433959577087,space,0.442435350073,space,0.566496209794,space,0.416926908845,space,0.430979085482,space,0.400621336354,space,0.504792522326,f,1,1.32823414886,SPR,19,A,,m,60.0603434729,001,2017_01_11_0905,
記者打壓邀請王總的政客,記者打壓政客？,的,王總,政客,記者,邀請,f,打壓,11,1,13,0,3,3,4,space,0.367232920005,space,0.459772977876,space,0.860890962678,space,0.91914004404,space,0.680367513844,space,0.533153762721,space,0.74750488987,f,1,0.879873569465,SPR,19,A,,m,60.0603434729,001,2017_01_11_0905,
室友鼓足勇氣參加了圍棋比賽,室友參加了比賽？,圍棋,參加了,比賽,室友,勇氣,f,鼓足,13,3,11,0,4,4,18,space,0.367187251191,space,0.474258707873,space,0.625927873305,space,0.425360317997,space,0.491684368339,space,0.392947772292,space,0.408156391684,f,1,1.36027623629,SPR,19,A,,m,60.0603434729,001,2017_01_11_0905,
院長刁難厭煩醫生的病人,病人刁難院長？,的,醫生,病人,院長,厭煩,j,刁難,11,1,10,0,5,5,1,space,0.417281142683,space,0.463437300008,space,0.66825836536,space,0.591679861551,space,0.579198151616,space,0.583521066248,space,0.657783379553,j,1,1.19713338,SPR,19,A,,m,60.0603434729,001,2017_01_11_0905,
經常跑步能夠提高身體素質,跑步不利於健康？,身體,提高,素質,經常,能夠,j,跑步,12,3,14,0,6,6,21,space,1.8169869994,space,0.790890572098,space,0.692228488326,space,0.657211317455,space,0.724478489086,space,0.759158852394,space,0.858935916425,j,1,1.4272291343,SPR,19,A,,m,60.0603434729,001,2017_01_11_0905,
攝影師誣陷認識張三的司機,攝影師誣陷司機？,的,張三,司機,攝影師,認識,f,誣陷,12,1,9,0,7,7,0,space,0.567058356944,space,0.937290096175,space,0.750406061932,space,0.782551805576,space,0.691988727012,space,0.666531963674,space,0.846717102671,f,1,1.0301657598,SPR,19,A,,m,60.0603434729,001,2017_01_11_0905,
姐姐想要舞者羨慕的造型師,舞者討厭造型師？,的,羨慕,造型師,姐姐,舞者,j,想要,12,2,48,0,8,8,15,space,0.43387004215,space,0.700420333444,space,0.642398694828,space,0.942405605252,space,1.11268511647,space,0.899999098641,space,0.997676298182,j,1,1.85743876021,SPR,19,A,,m,60.0603434729,001,2017_01_11_0905,
旅客結識科學家佩服的商人,科學家佩服商人？,的,佩服,商人,旅客,科學家,f,結識,12,2,45,0,9,9,12,space,0.383837443027,space,0.517167571532,space,0.547373291549,space,0.550020280563,space,0.546732726216,space,0.650453533475,space,0.829894150484,f,1,1.67449035697,SPR,19,A,,m,60.0603434729,001,2017_01_11_0905,
小林懷疑廣播員攔住的大叔,廣播員沒攔大叔？,的,攔住,大叔,小林,廣播員,j,懷疑,12,2,46,0,10,10,13,space,0.483991575304,space,0.914011915957,space,0.790483458572,space,1.06591092777,space,0.966062656429,space,0.56724794265,space,0.947309295108,j,1,1.38488001418,SPR,19,A,,m,60.0603434729,001,2017_01_11_0905,
為了進步就要不斷嚐試新方法,進步需要新方法？,嘗試,不斷,新方法,為了,就要,f,進步,13,3,15,0,11,11,22,space,0.383966337271,space,0.560098368245,space,0.71446890464,space,0.647693874664,space,0.42394728856,space,0.473613034846,space,0.522454939593,f,1,1.40829189589,SPR,19,A,,m,60.0603434729,001,2017_01_11_0905,
警察逮捕兇嫌唆使的槍手,警察逮捕兇嫌？,的,唆使,槍手,警察,兇嫌,j,逮捕,11,2,42,0,12,12,9,space,0.500592492885,space,0.547581805775,space,0.699376860932,space,1.12071772161,space,0.990862930441,space,1.13332321808,space,0.900894147482,j,1,2.16896593166,SPR,19,A,,m,60.0603434729,001,2017_01_11_0905,
叔叔推薦欣賞小王的村長,村長推薦叔叔？,的,小王,村長,叔叔,欣賞,j,推薦,11,1,12,0,13,13,3,space,0.38391495985,space,0.449586126291,space,0.591051915238,space,0.474045386392,space,1.46299923985,space,0.933332532128,space,0.529643572867,j,1,1.78720101192,SPR,19,A,,m,60.0603434729,001,2017_01_11_0905,
鄰居的奶奶一個字也不認識,鄰居的奶奶識字？,也,一個字,不認識,鄰居,奶奶,j,的,12,3,10,0,14,14,17,space,0.400642368048,space,0.465624896715,space,0.416774579295,space,0.42795322551,space,0.374826864085,space,0.433590621069,space,0.397965333759,j,1,1.3556450571,SPR,19,A,,m,60.0603434729,001,2017_01_11_0905,
教授同情欺瞞群眾的主席,教授批評主席？,的,群眾,主席,教授,欺瞞,j,同情,11,1,16,0,15,15,7,space,0.383886717282,space,0.416338021401,space,0.395792759686,space,0.445301369167,space,0.482804185907,space,0.450268755012,space,0.574779392547,j,1,1.88402762964,SPR,19,A,,m,60.0603434729,001,2017_01_11_0905,
新發芽的種子需要很多肥料,種子需要肥料？,很多,需要,肥料,新發芽,種子,f,的,12,3,13,0,16,16,20,space,2.31668744798,space,0.617603528517,space,0.83368826822,space,1.19108676776,space,0.946073232364,space,0.44801866413,space,0.460171979175,f,1,1.70497429626,SPR,19,A,,m,60.0603434729,001,2017_01_11_0905,
小郭嘲笑嫉妒哥哥的富商,小郭欣賞富商？,的,哥哥,富商,小郭,嫉妒,j,嘲笑,11,1,14,0,17,17,5,space,0.500120782024,space,0.563279562302,space,0.732614449975,space,0.546461116901,space,0.500074812742,space,0.400940116757,space,0.50905684867,j,1,1.16692555682,SPR,19,A,,m,60.0603434729,001,2017_01_11_0905,
局長辭退老闆害怕的藥劑師,局長辭退藥劑師？,的,害怕,藥劑師,局長,老闆,f,辭退,12,2,43,0,18,18,10,space,0.434029582582,space,0.496349799141,space,0.440461675746,space,0.48003611443,space,0.491252317239,space,0.483890022268,space,0.636711123661,f,1,2.57904762476,SPR,19,A,,m,60.0603434729,001,2017_01_11_0905,
明星資助在地人尊敬的導遊,明星資助在地人？,的,尊敬,導遊,明星,在地人,j,資助,12,2,44,0,19,19,11,space,0.383833236687,space,0.598342402001,space,0.54619401438,space,0.925203181199,space,1.31632329921,space,0.550503709092,space,0.506857834756,j,1,1.5329795001,SPR,19,A,,m,60.0603434729,001,2017_01_11_0905,
這個問題同學們一起討論過,問題沒有被討論？,一起,們,討論過,這個,同學,j,問題,12,3,16,0,20,20,23,space,0.367273481133,space,0.413935000048,space,0.411026917565,space,0.563258530608,space,0.450347774095,space,0.407983330879,space,0.446325011791,j,1,1.52998398586,SPR,19,A,,m,60.0603434729,001,2017_01_11_0905,
心理師理解小金關心的助教,心理師理解助教？,的,關心,助教,心理師,小金,f,理解,12,2,41,0,21,21,8,space,0.350767506636,space,0.392680970224,space,0.447494073567,space,0.473430059101,space,0.596411091516,space,0.450561696474,space,0.547314102347,f,1,1.40347022963,SPR,19,A,,m,60.0603434729,001,2017_01_11_0905,
舅舅斥責女婿讚賞的工程師,女婿讚賞工程師？,的,讚賞,工程師,舅舅,女婿,f,斥責,12,2,47,0,22,22,14,space,0.383880708221,space,0.408553890709,space,0.447626272791,space,0.757221232394,space,0.563639204287,space,0.450000150224,space,0.570643960447,f,1,1.39917075032,SPR,19,A,,m,60.0603434729,001,2017_01_11_0905,
我們週末約了一起去打籃球,我們不想打籃球？,打,一起去,籃球,我們,約了,j,週末,12,3,12,0,23,23,19,space,0.383852165214,space,0.346375187408,space,0.425398775958,space,0.374680243127,space,0.357704060021,space,0.400295044637,space,0.375949656132,j,1,1.16552304323,SPR,19,A,,m,60.0603434729,001,2017_01_11_0905,
