Sentences,Question,word5,word4,word6,word1,word3,Ans,word2,lenth,Type,ID,practicetrials.thisRepN,practicetrials.thisTrialN,practicetrials.thisN,practicetrials.thisIndex,key_resp_12.keys,key_resp_12.rt,Atests1.keys,Atests1.rt,Atests2.keys,Atests2.rt,Atests3.keys,Atests3.rt,Atests4.keys,Atests4.rt,Atests5.keys,Atests5.rt,Atests6.keys,Atests6.rt,key_resp_8.keys,key_resp_8.corr,key_resp_8.rt,expName,participant,version,Grade,Gender,frameRate,session,date,
局長辭退老闆害怕的藥劑師,局長辭退藥劑師？,的,害怕,藥劑師,局長,老闆,f,辭退,12,2,43,0,0,0,10,space,0.65945089249,space,0.525381049243,space,0.82607389336,space,0.858347028974,space,0.910220201855,space,1.09931827264,space,1.45545517094,f,1,3.47196985858,SPR,21,A,,f,59.979708272,001,2017_01_11_1128,
室友鼓足勇氣參加了圍棋比賽,室友參加了比賽？,圍棋,參加了,比賽,室友,勇氣,f,鼓足,13,3,11,0,1,1,18,space,0.716722901416,space,0.604795526859,space,0.693466654251,space,0.660444489855,space,0.62371533901,space,0.660397018306,space,0.560170176468,f,1,1.40214433151,SPR,21,A,,f,59.979708272,001,2017_01_11_1128,
這個問題同學們一起討論過,問題沒有被討論？,一起,們,討論過,這個,同學,j,問題,12,3,16,0,2,2,23,space,1.11694463556,space,1.06345803126,space,0.662210851748,space,0.811346599323,space,0.797436536857,space,0.824494112632,space,0.706701298855,f,0,2.83388746841,SPR,21,A,,f,59.979708272,001,2017_01_11_1128,
王總讚賞維護隊員的教練,王總讚賞教練？,的,隊員,教練,王總,維護,f,讚賞,11,1,15,0,3,3,6,space,0.500491841201,space,0.659934621479,space,1.20642007506,space,0.859674729814,space,2.74309905028,space,2.03351190242,space,1.31449294086,f,1,1.37565280878,SPR,21,A,,f,59.979708272,001,2017_01_11_1128,
心理師理解小金關心的助教,心理師理解助教？,的,關心,助教,心理師,小金,f,理解,12,2,41,0,4,4,8,space,0.700496347985,space,0.718505187309,space,0.664025887017,space,0.927052468061,space,1.04461363274,space,1.08367640033,space,1.36149367096,f,1,7.85332766479,SPR,21,A,,f,59.979708272,001,2017_01_11_1128,
李老師今天看上去很不舒服,老師今天不舒服？,很,上去,不舒服,李老師,看,f,今天,12,3,9,0,5,5,16,space,0.983838644839,space,1.2426005991,space,1.39397682308,space,1.02838287299,space,1.06195907232,space,0.696438432715,space,0.807932554351,f,1,1.12387367763,SPR,21,A,,f,59.979708272,001,2017_01_11_1128,
叔叔推薦欣賞小王的村長,村長推薦叔叔？,的,小王,村長,叔叔,欣賞,j,推薦,11,1,12,0,6,6,3,space,0.750416277326,space,0.88122260246,space,0.87235924539,space,1.31019015657,space,0.914304857419,space,1.69990655918,space,1.06144259399,j,1,6.15173526504,SPR,21,A,,f,59.979708272,001,2017_01_11_1128,
鄰居的奶奶一個字也不認識,鄰居的奶奶識字？,也,一個字,不認識,鄰居,奶奶,j,的,12,3,10,0,7,7,17,space,0.867140681017,space,1.27679513027,space,0.916730412733,space,1.01475613749,space,1.57440022114,space,2.16345953351,space,1.20605051813,j,1,1.61605829987,SPR,21,A,,f,59.979708272,001,2017_01_11_1128,
經常跑步能夠提高身體素質,跑步不利於健康？,身體,提高,素質,經常,能夠,j,跑步,12,3,14,0,8,8,21,space,0.700534505493,space,0.760545141515,space,0.678690386412,space,0.962390222063,space,1.16146182297,space,0.823268565728,space,0.777095282596,j,1,1.86000552833,SPR,21,A,,f,59.979708272,001,2017_01_11_1128,
小郭嘲笑嫉妒哥哥的富商,小郭欣賞富商？,的,哥哥,富商,小郭,嫉妒,j,嘲笑,11,1,14,0,9,9,5,space,0.867131967883,space,1.22559557253,space,0.690572693056,space,0.960461315204,space,0.812651465763,space,1.49981011383,space,0.594263755469,j,1,1.14948847913,SPR,21,A,,f,59.979708272,001,2017_01_11_1128,
新發芽的種子需要很多肥料,種子需要肥料？,很多,需要,肥料,新發芽,種子,f,的,12,3,13,0,10,10,20,space,0.800522787846,space,0.841174049303,space,0.850130246283,space,0.894058546226,space,0.728423734559,space,0.743470409914,space,0.828250974228,f,1,2.41034549066,SPR,21,A,,f,59.979708272,001,2017_01_11_1128,
攝影師誣陷認識張三的司機,攝影師誣陷司機？,的,張三,司機,攝影師,認識,f,誣陷,12,1,9,0,11,11,0,space,1.51688544637,space,0.836014073211,space,0.993529448882,space,0.730452091302,space,0.777901998314,space,0.632483753012,space,0.894581334069,f,1,1.15526618615,SPR,21,A,,f,59.979708272,001,2017_01_11_1128,
爺爺羨慕拜訪總統的老人,爺爺羨慕老人？,的,總統,老人,爺爺,拜訪,f,羨慕,11,1,11,0,12,12,2,space,0.650512121778,space,0.595880191453,space,0.657118477538,space,0.976420766092,space,0.71109902623,space,0.567220601442,space,0.896821510018,f,1,1.5412617815,SPR,21,A,,f,59.979708272,001,2017_01_11_1128,
為了進步就要不斷嚐試新方法,進步需要新方法？,嘗試,不斷,新方法,為了,就要,f,進步,13,3,15,0,13,13,22,space,0.716919998435,space,0.71021689687,space,0.830918093576,space,0.611864279461,space,0.592438204374,space,0.559812036736,space,0.689763874165,f,1,2.13249216569,SPR,21,A,,f,59.979708272,001,2017_01_11_1128,
旅客結識科學家佩服的商人,科學家佩服商人？,的,佩服,商人,旅客,科學家,f,結識,12,2,45,0,14,14,12,space,0.7170825434,space,0.994337366414,space,0.646819857531,space,1.11856467697,space,3.37500983983,space,1.01709426104,space,0.93012549913,j,0,3.26824033819,SPR,21,A,,f,59.979708272,001,2017_01_11_1128,
舅舅斥責女婿讚賞的工程師,女婿讚賞工程師？,的,讚賞,工程師,舅舅,女婿,f,斥責,12,2,47,0,15,15,14,space,0.883798384166,space,0.775924718546,space,1.24312068288,space,0.993737662648,space,1.03286112171,space,3.81622595251,space,2.25615132003,f,1,3.40229876424,SPR,21,A,,f,59.979708272,001,2017_01_11_1128,
小林懷疑廣播員攔住的大叔,廣播員沒攔大叔？,的,攔住,大叔,小林,廣播員,j,懷疑,12,2,46,0,16,16,13,space,1.33367234422,space,1.30982059965,space,1.02367928468,space,0.606699796583,space,0.944433361074,space,1.76689971787,space,1.42609792958,j,1,4.89875041688,SPR,21,A,,f,59.979708272,001,2017_01_11_1128,
警察逮捕兇嫌唆使的槍手,警察逮捕兇嫌？,的,唆使,槍手,警察,兇嫌,j,逮捕,11,2,42,0,17,17,9,space,1.01665559999,space,0.808348080551,space,0.770533393821,space,0.675615552638,space,2.05974713893,space,0.816646586405,space,0.927790079644,j,1,1.29110509537,SPR,21,A,,f,59.979708272,001,2017_01_11_1128,
姐姐想要舞者羨慕的造型師,舞者討厭造型師？,的,羨慕,造型師,姐姐,舞者,j,想要,12,2,48,0,18,18,15,space,0.617123404969,space,0.512546006838,space,1.09048285766,space,0.93926707549,space,1.21407891692,space,1.46654277998,space,0.972259194605,j,1,1.73522989143,SPR,21,A,,f,59.979708272,001,2017_01_11_1128,
記者打壓邀請王總的政客,記者打壓政客？,的,王總,政客,記者,邀請,f,打壓,11,1,13,0,19,19,4,space,0.917113490024,space,0.894156193375,space,0.825712749109,space,0.958933813265,space,1.01610727365,space,2.10007361093,space,1.64136002956,f,1,1.42353296418,SPR,21,A,,f,59.979708272,001,2017_01_11_1128,
院長刁難厭煩醫生的病人,病人刁難院長？,的,醫生,病人,院長,厭煩,j,刁難,11,1,10,0,20,20,1,space,0.833769991368,space,0.727698441551,space,0.810994468673,space,0.87803539935,space,1.49347056013,space,1.91697347903,space,1.02678266147,j,1,1.38818559569,SPR,21,A,,f,59.979708272,001,2017_01_11_1128,
我們週末約了一起去打籃球,我們不想打籃球？,打,一起去,籃球,我們,約了,j,週末,12,3,12,0,21,21,19,space,1.0668429323,space,0.957763549668,space,0.657210115649,space,0.608725749698,space,1.07759102968,space,0.566451141873,space,0.677715116675,j,1,2.02784716568,SPR,21,A,,f,59.979708272,001,2017_01_11_1128,
明星資助在地人尊敬的導遊,明星資助在地人？,的,尊敬,導遊,明星,在地人,j,資助,12,2,44,0,22,22,11,space,0.850533754376,space,0.6107562096,space,1.30836760999,space,0.967217296464,space,0.976238992153,space,0.500177868045,space,0.994176323729,j,1,1.19962383312,SPR,21,A,,f,59.979708272,001,2017_01_11_1128,
教授同情欺瞞群眾的主席,教授批評主席？,的,群眾,主席,教授,欺瞞,j,同情,11,1,16,0,23,23,7,space,0.633835790533,space,0.958602714294,space,0.725403883655,space,0.875493869258,space,1.42237321644,space,1.11712761132,space,0.843522087787,j,1,0.89789893369,SPR,21,A,,f,59.979708272,001,2017_01_11_1128,
許多古生物學家著迷於恐龍,學者討厭恐龍？,於,著迷,恐龍,許多,生物學家,j,古,12,3,22,0,0,0,21,space,1.34398748915,space,0.876248606641,space,0.747573393091,space,1.35397574144,space,0.82183540595,space,0.76644453191,space,1.09276810153,j,1,0.92539186553,SPR,21,A,,f,59.979708272,001,2017_01_11_1128,
老闆責罵同情雇主的技工,技工責罵老闆？,的,雇主,技工,老闆,同情,j,責罵,11,1,18,0,1,1,1,space,0.683424019997,space,0.65003860819,space,0.641463385327,space,0.796369629024,space,1.30947598031,space,0.916286944426,space,1.02572927401,j,1,1.04075672038,SPR,21,A,,f,59.979708272,001,2017_01_11_1128,
如果天氣好的話我就去野餐,天氣好也不野餐？,就,我,去野餐,如果,的話,j,天氣好,12,3,24,0,2,2,23,space,1.13347344448,space,0.793156887434,space,0.693882180451,space,1.04238998171,space,1.08323623701,space,0.668798879909,space,1.02136159192,j,1,2.09706247316,SPR,21,A,,f,59.979708272,001,2017_01_11_1128,
外婆批評辱罵農夫的木匠,外婆批評木匠？,的,農夫,木匠,外婆,辱罵,f,批評,11,1,19,0,3,3,2,space,1.26673867519,space,0.781033016756,space,1.24916639375,space,1.37695016389,space,1.01139467178,space,0.450540965234,space,0.94082462271,f,1,1.42076429179,SPR,21,A,,f,59.979708272,001,2017_01_11_1128,
科學家協助熟識表姐的院士,科學家排斥院士？,的,表姐,院士,科學家 ,熟識,j,協助,12,1,24,0,4,4,7,space,0.700499352533,space,0.957457388286,space,0.75704636889,space,1.29145452197,space,0.59340145599,space,0.60059820149,space,0.710302826366,j,1,0.900367453753,SPR,21,A,,f,59.979708272,001,2017_01_11_1128,
媽媽討厭小白忽視的企業家,小白忽視企業家？,的,忽視,企業家,媽媽,小白,f,討厭,12,2,55,0,5,5,14,space,0.550584230426,space,1.07852393558,space,0.863062635399,space,1.18093867459,space,0.959036267654,space,0.966572825258,space,1.55285835755,f,1,2.11947625071,SPR,21,A,,f,59.979708272,001,2017_01_11_1128,
大腦裡的奧秘等著你們去解開,大腦里有奧妙？,你們,等著,去解開,大腦裡,奧秘,f,的,13,3,19,0,6,6,18,space,0.733841799592,space,0.839053453543,space,0.549534748861,space,0.892812268095,space,0.708661152355,space,0.741921876281,space,1.07491970398,f,1,1.24560302375,SPR,21,A,,f,59.979708272,001,2017_01_11_1128,
阿姨看見交警驅趕的行政人員,交警驅趕行政人員？,的,驅趕,行政人員,阿姨,交警,f,看見,13,2,53,0,7,7,12,space,1.50022413778,space,0.693393343769,space,0.76032731327,space,1.22854000979,space,0.95889114897,space,1.01701704468,space,0.75262791026,f,1,1.82993741568,SPR,21,A,,f,59.979708272,001,2017_01_11_1128,
同伴欺負取笑小郭的廚師,同伴關心廚師？,的,小郭,廚師,同伴,取笑,j,欺負,11,1,22,0,8,8,5,space,0.850346872729,space,2.48815164453,space,1.09325783956,space,1.0009016588,space,2.198001989,space,0.833758574168,space,1.00788177784,j,1,1.75005122719,SPR,21,A,,f,59.979708272,001,2017_01_11_1128,
有人明年要在高雄舉辦演唱會,明年有演唱會？,舉辦,高雄,演唱會,有人,要在,f,明年,13,3,17,0,9,9,16,space,0.650523839417,space,0.779538865056,space,0.742396591653,space,1.44686492544,space,0.809197761031,space,0.591366188848,space,0.548503594924,f,1,1.68371065195,SPR,21,A,,f,59.979708272,001,2017_01_11_1128,
青年佩服小謝督促的技術員,青年佩服小謝？,的,督促,技術員,青年,小謝,j,佩服,12,2,50,0,10,10,9,space,1.36694238217,space,1.17673534015,space,0.996115445974,space,1.74614924692,space,3.22448389724,space,0.733283558322,space,1.0050974819,j,1,2.14823499013,SPR,21,A,,f,59.979708272,001,2017_01_11_1128,
主任指責嘲笑上司的會計,主任指責會計？,的,上司,會計,主任,嘲笑,f,指責,11,1,23,0,11,11,6,space,0.700404709904,space,0.858718388612,space,0.893880978634,space,1.0658222942,space,1.23027181963,space,0.733818364271,space,1.06048024373,f,1,1.00422166203,SPR,21,A,,f,59.979708272,001,2017_01_11_1128,
偵探跟蹤迷戀老婆的編輯,偵探跟蹤編輯？,的,老婆,編輯,偵探,迷戀,f,跟蹤,11,1,17,0,12,12,0,space,0.866976333346,space,1.3220394134,space,0.759331913185,space,0.807241813411,space,0.645646288947,space,0.600623739971,space,0.779153985059,f,1,0.992930646491,SPR,21,A,,f,59.979708272,001,2017_01_11_1128,
刑警緝拿政府輕視的逃亡者,政府重視逃亡者？,的,輕視,逃亡者,刑警,政府,j,緝拿,12,2,56,0,13,13,15,space,1.18376082757,space,0.91028930599,space,0.888302471823,space,0.676427976956,space,0.858541421927,space,0.817163665633,space,0.822658947029,j,1,4.21258656797,SPR,21,A,,f,59.979708272,001,2017_01_11_1128,
小王關注航海家資助的演員,小王關注演員？,的,資助,演員,小王,航海家,f,關注,12,2,51,0,14,14,10,space,1.31694974325,space,0.84838762015,space,0.876986518691,space,0.907591540454,space,1.44534223074,space,0.533444901477,space,0.779710123155,f,1,0.931077934438,SPR,21,A,,f,59.979708272,001,2017_01_11_1128,
鄰居告發砍傷表弟的疑犯,鄰居告發疑犯？,的,表弟,疑犯,鄰居,砍傷,f,告發,11,1,21,0,15,15,4,space,1.1003734628,space,1.58238926061,space,1.03911594773,space,0.825554410505,space,0.692937857355,space,0.583412302352,space,0.626871895947,f,1,0.866338472086,SPR,21,A,,f,59.979708272,001,2017_01_11_1128,
雨後有時會見到漂亮的彩虹,雨後可能現彩虹？,的,漂亮,彩虹,雨後,會見到,f,有時,12,3,21,0,16,16,20,space,0.733778404057,space,0.744376875955,space,1.42480628307,space,1.18213447665,space,0.623540775952,space,0.617237276587,space,0.576058720486,f,1,3.41747283156,SPR,21,A,,f,59.979708272,001,2017_01_11_1128,
小張欽佩隊長袒護的消防員,校長欽佩隊長？,的,袒護,消防員,小張,隊長,j,欽佩,12,2,52,0,17,17,11,space,0.883803491859,space,0.900196496121,space,0.798410905234,space,0.797539592153,space,0.67581295011,space,1.10030586093,space,0.591592129349,j,1,2.47606112411,SPR,21,A,,f,59.979708272,001,2017_01_11_1128,
妹妹的個性一向是冷冰冰的,妹妹個性熱情？,是,一向,冷冰冰的,妹妹,個性,j,的,11,3,20,0,18,18,19,space,1.30036294696,space,0.794805772312,space,0.749305503399,space,0.757872914473,space,0.658924198768,space,0.531282242329,space,0.653741388276,j,1,1.24751119937,SPR,21,A,,f,59.979708272,001,2017_01_11_1128,
治療師開導小崔照顧的飛行員,治療師開導飛行員？,的,照顧,飛行員,治療師,小崔,f,開導,13,2,49,0,19,19,8,space,0.650555386965,space,0.74815837467,space,1.29551994856,space,2.22512686618,space,0.51077964493,space,0.56683962731,space,0.62140155214,f,1,1.56377350667,SPR,21,A,,f,59.979708272,001,2017_01_11_1128,
夏天是個非常美麗的季節,夏天是個好季節？,的,美麗,季節,夏天,非常,f,是個,11,3,23,0,20,20,22,space,0.783864483776,space,0.756627838142,space,0.647003734615,space,0.591300089232,space,0.542468099433,space,0.633879656642,space,0.523271870712,f,1,1.13249637203,SPR,21,A,,f,59.979708272,001,2017_01_11_1128,
贊助商支持貴族拉攏的青年,貴族排斥青年？,的,拉攏,青年,贊助商,貴族,j,支持,12,2,54,0,21,21,13,space,0.717146539828,space,1.42065192244,space,1.14359389601,space,0.793234704688,space,0.610858063097,space,0.750449026687,space,0.646946648601,j,1,0.768475292265,SPR,21,A,,f,59.979708272,001,2017_01_11_1128,
哥哥的體育特長是打羽毛球,哥哥不會打羽毛球？,是,特長,打羽毛球,哥哥,體育,j,的,12,3,18,0,22,22,17,space,0.700028543026,space,0.716515288543,space,0.683474195612,space,0.623746586105,space,0.640667185449,space,0.616528808925,space,0.605299085728,j,1,0.810767025905,SPR,21,A,,f,59.979708272,001,2017_01_11_1128,
妹妹迷戀結識表哥的中醫師,中醫師迷戀妹妹？,的,表哥,中醫師,妹妹,結識,j,迷戀,12,1,20,0,23,23,3,space,1.19984106047,space,0.667244637676,space,0.580583839852,space,0.914045867132,space,0.572755242145,space,0.533282656965,space,0.841334791534,j,1,1.35046825565,SPR,21,A,,f,59.979708272,001,2017_01_11_1128,
助教嫌棄局長愛慕的學生,助教嫌棄學生？,的,愛慕,學生,助教,局長,f,嫌棄,11,2,33,0,0,0,8,space,0.870238349191,space,0.846981200666,space,0.676124519654,space,0.650307513424,space,1.160077637,space,0.750453533474,space,0.812564634907,f,1,2.60527084315,SPR,21,A,,f,59.979708272,001,2017_01_11_1128,
叔叔有很多棟房子和別墅,叔叔沒有房子？,和,房子,別墅,叔叔,很多棟,j,有,11,3,8,0,1,1,23,space,0.633815960653,space,0.798992281372,space,0.783329677826,space,0.820308504917,space,0.608370314061,space,0.559905477552,space,0.608905420464,j,1,0.901274220261,SPR,21,A,,f,59.979708272,001,2017_01_11_1128,
究竟存不存在外星人仍是個謎,外星人是個謎？,是個,仍,謎,究竟,外星人,f,存不存在,13,3,3,0,2,2,18,space,1.21699451073,space,0.744035862037,space,0.639490011439,space,0.609995763618,space,0.695737175934,space,0.580747887056,space,0.645888754356,f,1,3.0984021921,SPR,21,A,,f,59.979708272,001,2017_01_11_1128,
校長相信厭惡房東的小孩,小孩相信校長？,的,房東,小孩,校長,厭惡,j,相信,11,1,2,0,3,3,1,space,1.00028092336,space,0.646073232361,space,0.610190156571,space,0.993550480562,space,1.22775612849,space,0.800502357044,space,0.85887402315,j,1,1.03040191569,SPR,21,A,,f,59.979708272,001,2017_01_11_1128,
敵人搜查戰士掩護的村民,戰士沒掩護村民？,的,掩護,村民,敵人,戰士,j,搜查,11,2,40,0,4,4,15,space,1.08373378681,space,0.673522298093,space,0.594018886462,space,0.708870868388,space,0.657909870177,space,0.950525942608,space,0.712526477408,j,1,1.67727645562,SPR,21,A,,f,59.979708272,001,2017_01_11_1128,
公園裡擠滿了玩鬧的小孩,公園裡有小孩？,的,玩鬧,小孩,公園裡,滿了,f,擠,11,3,7,0,5,5,22,space,1.03376818866,space,0.63958255091,space,0.545381289601,space,0.575034777416,space,0.595233316621,space,0.617177486478,space,0.712101637168,f,1,1.06563210759,SPR,21,A,,f,59.979708272,001,2017_01_11_1128,
茶餐廳裡有很多好吃的甜點,餐廳裡有甜點？,的,好吃,甜點,茶餐廳裡,很多,f,有,12,3,5,0,6,6,20,space,0.816639075085,space,2.1353644943,space,0.966195456553,space,0.497278799143,space,0.605533138441,space,0.53401125496,space,0.575697576249,f,1,1.1760707386,SPR,21,A,,f,59.979708272,001,2017_01_11_1128,
商人質疑小陳賄賂的企劃員,商人質疑小陳？,的,賄賂,企劃員,商人,小陳,j,質疑,12,2,36,0,7,7,11,space,0.683792976008,space,0.731171074818,space,1.02950536458,space,0.623900117469,space,2.12459326204,space,0.500563348964,space,0.603806736748,j,1,4.96902211633,SPR,21,A,,f,59.979708272,001,2017_01_11_1128,
名嘴毀謗賞識徐總的詩人,名嘴稱讚詩人？,的,徐總,詩人,名嘴,賞識,j,毀謗,11,1,8,0,8,8,7,space,0.933771193188,space,0.674684449463,space,0.839779347472,space,0.546690362375,space,0.691505298484,space,0.850404860132,space,0.741093527933,j,1,1.3358130703,SPR,21,A,,f,59.979708272,001,2017_01_11_1128,
強盜綁架主人誣陷的管家,強盜綁架主人？,的,誣陷,管家,強盜,主人,j,綁架,11,2,34,0,9,9,9,space,0.63422818188,space,0.542850876271,space,0.626106642711,space,0.696375037194,None,,space,1.10029264101,None,,j,1,2.60361024062,SPR,21,A,,f,59.979708272,001,2017_01_11_1128,
小劉愛慕欽佩領隊的組長,小劉討厭組長？,的,領隊,組長,小劉,欽佩,j,愛慕,11,1,6,0,10,10,5,space,1.23375166376,space,1.00795028107,space,1.01484747515,space,1.51483515657,space,1.6259921702,space,1.15041537597,space,1.37950341163,j,1,1.7316019241,SPR,21,A,,f,59.979708272,001,2017_01_11_1128,
證人揭發搶匪指使的殺手,證人揭發殺手？,的,指使,殺手,證人,搶匪,f,揭發,11,2,35,0,11,11,10,space,0.700493343465,space,0.673288846301,space,0.673412031931,space,0.758656495338,space,2.02922834712,space,0.983808900011,space,0.624099918583,f,1,1.14827104447,SPR,21,A,,f,59.979708272,001,2017_01_11_1128,
村民擔心刺客襲擊的鐵匠,刺客襲擊了鐵匠？,的,襲擊,鐵匠,村民,刺客,f,擔心,11,2,39,0,12,12,14,space,0.766685495037,space,0.796578744164,space,0.787559452103,space,1.0921560792,space,1.87778842715,space,1.28376232983,space,1.59206113612,f,1,1.79794069663,SPR,21,A,,f,59.979708272,001,2017_01_11_1128,
外婆檢舉嬸嬸救治的鄰居,嬸嬸沒救鄰居？,的,救治,鄰居,外婆,嬸嬸,j,檢舉,11,2,38,0,13,13,13,space,0.684068491217,space,1.31553731473,space,0.707946976094,space,0.659419945849,space,0.74103433876,space,0.683755419421,space,0.832931728117,j,1,1.05181067869,SPR,21,A,,f,59.979708272,001,2017_01_11_1128,
村民援助舉薦小潘的水手,村民援助水手？,的,小潘,水手,村民,舉薦,f,援助,11,1,7,0,14,14,6,space,0.700455786864,space,0.680709429114,space,0.842579867865,space,1.74783088114,space,0.687128001897,space,0.600086830862,space,0.613511061165,f,1,1.07809128356,SPR,21,A,,f,59.979708272,001,2017_01_11_1128,
王董賞識表揚工人的廠長,王董賞識廠長？,的,工人,廠長,王董,表揚,f,賞識,11,1,3,0,15,15,2,space,0.650419582307,space,0.6381782346,space,0.580446232474,space,0.62518695675,space,0.862842703951,space,0.667240130875,space,1.09518223963,f,1,1.65175839991,SPR,21,A,,f,59.979708272,001,2017_01_11_1128,
警察逮捕了正在逃跑的罪犯,罪犯正在逃跑？,的,逃跑,罪犯,警察,正在,f,逮捕了,12,3,1,0,16,16,16,space,0.666636821697,space,0.649486676426,space,0.826503841294,space,0.710262866138,space,0.578748073342,space,0.567214291936,space,0.724637428619,f,1,2.13138589855,SPR,21,A,,f,59.979708272,001,2017_01_11_1128,
傳統小說有很多精華的部分,小說沒有精華？,的,精華,部分,傳統小說,很多 ,j,有 ,12,3,6,0,17,17,21,space,0.533995330974,space,0.554364527343,space,0.59841120569,space,0.578299797795,space,0.571071805214,space,0.567302625059,space,0.592755482503,j,1,1.03720987529,SPR,21,A,,f,59.979708272,001,2017_01_11_1128,
小紅取笑崇拜小張的作家,小紅取笑作家？,的,小張,作家,小紅,崇拜,f,取笑,11,1,1,0,18,18,0,space,0.483848559787,space,0.511294020092,space,0.612595581537,space,1.40996992467,space,0.646362868836,space,0.467198367929,space,0.97468835536,f,1,1.10254663779,SPR,21,A,,f,59.979708272,001,2017_01_11_1128,
老師調查傷害弟弟的同學,同學調查老師？,的,弟弟,同學,老師,傷害,j,調查,11,1,4,0,19,19,3,space,0.600493043021,space,0.649536852041,space,0.605481160106,space,0.579986840166,space,0.650314123384,space,0.533489668931,space,0.83296327565,j,1,0.956195486593,SPR,21,A,,f,59.979708272,001,2017_01_11_1128,
老師這次沒有劃考試的重點,老師劃了重點？,的,劃考試,重點,老師,沒有,j,這次,12,3,4,0,20,20,19,space,0.567271978885,space,0.75043911174,space,0.627620023384,space,0.566266964306,space,0.900143315972,space,0.917148943467,space,0.780390348256,j,1,0.968864679075,SPR,21,A,,f,59.979708272,001,2017_01_11_1128,
司機們大部分都比較好說話,司機討厭說話？,好,比較,說話,司機們,都,j,大部分,12,3,2,0,21,21,17,space,1.00038157504,space,0.700188383897,space,0.646530221042,space,0.727640153709,space,0.640627225235,space,0.683153011589,space,0.813254174034,j,1,0.883455867996,SPR,21,A,,f,59.979708272,001,2017_01_11_1128,
小李暗戀船長招待的賓客,船長招待過賓客？,的,招待,賓客,小李,船長,f,暗戀,11,2,37,0,22,22,12,space,0.85035798949,space,0.982144091147,space,0.541600091339,space,0.612154516857,space,0.57554314351,space,0.933212351025,space,0.707294092193,f,1,1.3696281296,SPR,21,A,,f,59.979708272,001,2017_01_11_1128,
粉絲大罵羞辱小周的導演,粉絲大罵導演？,的,小周,導演,粉絲,羞辱,f,大罵,11,1,5,0,23,23,4,space,0.483851864759,space,0.752177831993,space,0.638228410215,space,2.07376416259,space,0.641386769872,space,0.767040029328,space,0.614946324102,f,1,0.989567978948,SPR,21,A,,f,59.979708272,001,2017_01_11_1128,
政府豁免檢舉犯人的同伴,同伴豁免政府？,的,犯人,同伴,政府,檢舉,j,豁免,11,1,26,0,0,0,1,space,1.13064167701,space,0.664784530294,space,0.643045269229,space,1.78398616715,space,0.544088140829,space,0.417401323793,space,0.795595662654,j,1,0.900975870638,SPR,21,A,,f,59.979708272,001,2017_01_11_1128,
家長們準備了豐盛的晚餐,晚餐沒有東西吃？,的,豐盛,晚餐,家長們,了,j,準備,11,3,32,0,1,1,23,space,0.533742049272,space,0.809025000679,space,0.949316019236,space,0.800035453431,space,0.708485988391,space,0.550716129204,space,0.640954418312,j,1,0.86231961567,SPR,21,A,,f,59.979708272,001,2017_01_11_1128,
朋友毆打碰見駕駛員的盜賊,朋友幫助盜賊？,的,駕駛員,盜賊,朋友,碰見,j,毆打,12,1,32,0,2,2,7,space,1.05037271167,space,0.557493743079,space,0.606566395567,space,0.674498769644,space,0.68864348573,space,0.650533453911,space,0.907438309543,j,1,1.22501119187,SPR,21,A,,f,59.979708272,001,2017_01_11_1128,
鄰居尊敬信任市民的委員,委員尊敬鄰居？,的,市民,委員,鄰居,信任,j,尊敬,11,1,28,0,3,3,3,space,0.733913307355,space,0.949184721379,space,1.28269692426,space,0.915048177601,space,0.592619677846,space,0.467242834944,space,0.610297117746,j,1,0.901156442749,SPR,21,A,,f,59.979708272,001,2017_01_11_1128,
聖誕節是個令人快樂的節日,聖誕節讓人快樂？,的,快樂,節日,聖誕節,令人,f,是個,12,3,25,0,4,4,16,space,1.13362246906,space,0.904203634884,space,0.697075693068,space,0.675527219515,space,0.791114409411,space,0.550608567108,space,0.674850900308,f,1,0.963143457193,SPR,21,A,,f,59.979708272,001,2017_01_11_1128,
律師帮助惹怒上尉的服務員,律師無視服務員？,的,上尉,服務員,律師,惹怒,j,幫助,12,1,30,0,5,5,5,space,0.950529848487,space,0.707154381656,space,0.562797636041,space,0.63800877922,space,0.608574021055,space,0.600554034929,space,0.570725984071,j,1,1.1484960836,SPR,21,A,,f,59.979708272,001,2017_01_11_1128,
弟弟花光了所有的零花錢,弟弟還有零花錢？,的,所有,零花錢,弟弟,光了,j,花,11,3,30,0,6,6,21,space,0.750459842995,space,0.534073448682,space,0.561580501817,space,0.475147747653,space,0.691791329533,space,0.617253501026,space,0.543185280214,j,1,1.45715933912,SPR,21,A,,f,59.979708272,001,2017_01_11_1128,
教授排斥小林支持的研究員,小林不支持研究員？,的,支持,研究員,教授,小林,j,排斥,12,2,64,0,7,7,15,space,0.817112588673,space,0.81286508769,space,0.696897224116,space,0.589680047837,space,0.799367847343,space,0.566693306813,space,0.686629851189,j,1,1.04001309974,SPR,21,A,,f,59.979708272,001,2017_01_11_1128,
鄉村的風景迷人且空氣新鮮,鄉村的風景很好？,空氣,且,新鮮,鄉村的,迷人,f,風景,12,3,29,0,8,8,20,space,0.517324107437,space,0.520802449289,space,0.641960935129,space,0.546230068721,space,0.596359413626,space,0.796598574059,space,0.65691567192,f,1,1.15278684978,SPR,21,A,,f,59.979708272,001,2017_01_11_1128,
孩子們快樂地享受著陽光,孩子們喜歡陽光？,著,享受,陽光,孩子們,的,f,快樂,11,3,31,0,9,9,22,space,0.717112588682,space,0.764844320394,space,0.830518190909,space,0.616767067972,space,0.557923390545,space,0.616725004584,space,0.691096081791,f,1,0.932982805083,SPR,21,A,,f,59.979708272,001,2017_01_11_1128,
今天爸爸買了一籃新鮮的水果,爸爸買了水果？,的,新鮮,各種水果,今天,買了,f,爸爸,13,3,27,0,10,10,18,space,1.0506118721,space,0.665928954928,space,0.61070423128,space,0.59142267397,space,0.696265371924,space,0.948729535419,space,1.16652445235,f,1,1.00149174807,SPR,21,A,,f,59.979708272,001,2017_01_11_1128,
法官偏袒代理商詆毀的律師,代理商詆毀律師？,的,詆毀,律師,法官,代理商,f,偏袒,12,2,61,0,11,11,12,space,0.667172829446,space,0.690852414584,space,0.606804955067,space,0.757864802261,space,0.671201901263,space,1.53297799783,space,0.862456021219,f,1,4.92814641664,SPR,21,A,,f,59.979708272,001,2017_01_11_1128,
群眾反感主播討好的發言人,群眾反感發言人？,的,討好,發言人,群眾,主播,f,反感,12,2,57,0,12,12,8,space,0.60040801487,space,0.633754668292,space,0.706678764909,space,0.614050073447,space,0.665014977567,space,0.600574465716,space,0.961237685202,f,1,1.71648223873,SPR,21,A,,f,59.979708272,001,2017_01_11_1128,
海關扣留空服員侮辱的旅客,海關扣留空服員？,的,侮辱,旅客,海關,空服員,j,扣留,12,2,58,0,13,13,9,space,0.433881158911,space,0.513202796617,space,0.558021338147,space,0.528045464511,space,0.790533033272,space,0.517196414992,space,0.566423800672,j,1,1.42985659388,SPR,21,A,,f,59.979708272,001,2017_01_11_1128,
店長錯怪熟悉顧客的職工,店長錯怪職工？,的,顧客,職工,店長,熟悉,f,錯怪,11,1,25,0,14,14,0,space,0.717145338029,space,0.673488647386,space,0.625045743931,space,0.579203259316,space,0.597209995452,space,0.600633054026,space,2.43989502179,f,1,3.81832100976,SPR,21,A,,f,59.979708272,001,2017_01_11_1128,
小明認識大姑姑捧紅的明星,小明認識大姑姑？,的,捧紅,明星,小明,大姑姑,j,認識,12,2,60,0,15,15,11,space,0.600424239325,space,0.562300687132,space,0.564046918706,space,0.590692273254,space,0.642203100069,space,0.600569958915,space,0.565830706881,j,1,5.70939275488,SPR,21,A,,f,59.979708272,001,2017_01_11_1128,
警衛攔住治療師責備的婦女,治療師沒責備婦女？,的,責備,婦女,警衛,治療師,j,攔住,12,2,62,0,16,16,13,space,0.717163966096,space,0.690000931398,space,0.768805790329,space,0.61234981117,space,0.81136883283,space,1.05007556386,space,1.1600560044,j,1,5.37654905944,SPR,21,A,,f,59.979708272,001,2017_01_11_1128,
助手賄賂批評小吳的評論家,助手賄賂評論家？,的,小吳,評論家,助手,批評,f,賄賂,12,1,29,0,17,17,4,space,0.750031697768,space,0.979721239913,space,0.715640370036,space,1.83363869351,space,1.05668191965,space,0.96708840222,space,3.45849274857,f,1,5.84962668743,SPR,21,A,,f,59.979708272,001,2017_01_11_1128,
他一邊寫作業一邊看著電視,他沒在看電視？,看著,一邊,電視,他,寫作業,j,一邊,12,3,26,0,18,18,17,space,0.617238177932,space,0.727981167613,space,0.624981447036,space,0.569092121819,space,0.562449110803,space,0.498485117074,space,0.523922951892,j,1,0.981730968575,SPR,21,A,,f,59.979708272,001,2017_01_11_1128,
參加國際會議是令人高興的事,參會不值得高興？,的,令人高興,事,參加,是,j,國際會議,13,3,28,0,19,19,19,space,0.600483428527,space,0.531695064463,space,0.570270497643,space,0.667102523512,space,0.532866830312,space,0.500177868045,space,0.578595443323,j,1,2.09765676875,SPR,21,A,,f,59.979708272,001,2017_01_11_1128,
上司懲罰小明責罵的管理員,上司懲罰管理員？,的,責罵,管理員,上司,小明,f,懲罰,12,2,59,0,20,20,10,space,1.08384315163,space,0.681149291981,space,0.771228942001,space,0.646261015354,space,0.580836520632,space,0.75033785915,space,0.642368649555,f,1,2.59599466396,SPR,21,A,,f,59.979708272,001,2017_01_11_1128,
大叔喜歡親近孩子的阿姨,大叔喜歡阿姨？,的,孩子,阿姨,大叔,親近,f,喜歡,11,1,27,0,21,21,2,space,0.633884463881,space,0.563250117921,space,0.54955097333,space,0.606784223812,space,0.596329969252,space,0.600515276528,space,1.38265065454,f,1,0.796142787178,SPR,21,A,,f,59.979708272,001,2017_01_11_1128,
外婆感激協助叔叔的警察,外婆感激警察？,的,叔叔,警察,外婆,協助,f,感激,11,1,31,0,22,22,6,space,1.1169984166,space,0.716182086398,space,0.706000642967,space,3.72844236264,space,0.632727720673,space,0.700591891975,space,0.766740477891,f,1,0.851736767319,SPR,21,A,,f,59.979708272,001,2017_01_11_1128,
導演無視業務員撞見的藝人,業務員撞見藝人？,的,撞見,藝人,導演,業務員,f,無視,12,2,63,0,23,23,14,space,1.91686050878,space,0.646866427705,space,0.795928564345,space,1.02673819447,space,1.92215388591,space,0.950476367885,space,1.94025947103,f,1,1.51565058544,SPR,21,A,,f,59.979708272,001,2017_01_11_1128,
