Sentences,Question,word5,word4,word6,word1,word3,Ans,word2,lenth,Type,ID,practicetrials.thisRepN,practicetrials.thisTrialN,practicetrials.thisN,practicetrials.thisIndex,key_resp_12.keys,key_resp_12.rt,Atests1.keys,Atests1.rt,Atests2.keys,Atests2.rt,Atests3.keys,Atests3.rt,Atests4.keys,Atests4.rt,Atests5.keys,Atests5.rt,Atests6.keys,Atests6.rt,key_resp_8.keys,key_resp_8.corr,key_resp_8.rt,expName,participant,version,Grade,Gender,frameRate,session,date,
小朋友需要父母的關愛和鼓勵,小朋友不需要鼓勵？,關愛和,的,鼓勵,小朋友,父母,j,需要,13,3,48,0,0,0,23,space,0.409840729975,space,0.505988925317,space,0.540189765976,space,0.494293500306,space,0.499034044304,space,0.474228362131,space,0.442814221038,j,1,0.865758297761,SPR,22,B,,m,59.8732130103,001,2017_01_11_1430,
警察逮捕唆使兇嫌的槍手,警察逮捕兇嫌？,的,兇嫌,槍手,警察,唆使,j,逮捕,11,1,42,0,1,1,9,space,0.550479071971,space,0.492637705029,space,0.494162502888,space,0.577498490224,space,0.527224627513,space,0.517052197669,space,0.608607671747,j,1,1.38168890518,SPR,22,B,,m,59.8732130103,001,2017_01_11_1430,
攝影師誣陷張三認識的司機,攝影師誣陷司機？,的,認識,司機,攝影師,張三,f,誣陷,12,2,9,0,2,2,0,space,0.483468186547,space,0.458501161251,space,0.477871352137,space,0.443953237525,space,0.441609705827,space,0.450520534447,space,0.511049451525,j,0,1.10850311418,SPR,22,B,,m,59.8732130103,001,2017_01_11_1430,
記者打壓王總邀請的政客,記者打壓政客？,的,邀請,政客,記者,王總,f,打壓,11,2,13,0,3,3,4,space,0.583367234416,space,0.579823694308,space,0.727552721946,space,0.657739813891,space,0.726773647883,space,0.616761359372,space,0.68361841295,f,1,1.61105756374,SPR,22,B,,m,59.8732130103,001,2017_01_11_1430,
小郭嘲笑哥哥嫉妒的富商,小郭欣賞富商？,的,嫉妒,富商,小郭,哥哥,j,嘲笑,11,2,14,0,4,4,5,space,0.550496798664,space,0.528293338066,space,0.578001448172,space,0.680992155176,space,0.588875735732,space,0.583807998657,space,0.895024201483,j,1,2.13236777823,SPR,22,B,,m,59.8732130103,001,2017_01_11_1430,
王總讚賞隊員維護的教練,王總讚賞教練？,的,維護,教練,王總,隊員,f,讚賞,11,2,15,0,5,5,6,space,0.50021482374,space,0.598160928523,space,0.478922035516,space,0.460529517979,space,0.469031730812,space,0.533830382381,space,0.677154772246,f,1,0.836303709701,SPR,22,B,,m,59.8732130103,001,2017_01_11_1430,
局長辭退害怕老闆的藥劑師,局長辭退藥劑師？,的,老闆,藥劑師,局長,害怕,f,辭退,12,1,43,0,6,6,10,space,0.41725800783,space,0.440641646957,space,0.410094913037,space,0.427238448348,space,0.463226682608,space,0.483876201426,space,0.673247684259,f,1,0.988266717948,SPR,22,B,,m,59.8732130103,001,2017_01_11_1430,
教授同情群眾欺瞞的主席,教授批評主席？,的,欺瞞,主席,教授,群眾,j,同情,11,2,16,0,7,7,7,space,0.483972045869,space,0.394158897456,space,0.361952161897,space,0.393972316277,space,0.374264416474,space,0.450632603344,space,0.377773404529,j,1,1.03188404927,SPR,22,B,,m,59.8732130103,001,2017_01_11_1430,
她的書架上擺放了一大堆的書,書架上沒有書?,的,一大堆,書,她的,擺放了,j,書架上,13,3,42,0,8,8,17,space,0.383881609581,space,0.34524398268,space,0.36891094879,space,0.374842788078,space,0.441160829374,space,0.400708768109,space,0.383863582421,j,1,0.890532732825,SPR,22,B,,m,59.8732130103,001,2017_01_11_1430,
大學部設置了許多不同的課程,大學課程有很多?,教學,的,課程,大學部,許多不同,f,設置了,13,3,47,0,9,9,22,space,0.350555386976,space,0.341014208418,space,0.342664295094,space,0.341491026978,space,0.350119429975,space,0.364356385078,space,0.410556108051,f,1,1.45310563018,SPR,22,B,,m,59.8732130103,001,2017_01_11_1430,
明星資助尊敬在地人的導遊,明星資助在地人？,的,在地人,導遊,明星,尊敬,j,資助,12,1,44,0,10,10,11,space,0.333968290215,space,0.338194459051,space,0.360489257306,space,0.346239683204,space,0.343338811581,space,0.432912799602,space,0.405233887475,j,1,0.809987350935,SPR,22,B,,m,59.8732130103,001,2017_01_11_1430,
學校的操場上聚集了很多學生,操場上沒有學生?,很多,聚集了,學生,學校,操場上,j,的,13,3,44,0,11,11,19,space,0.367217296473,space,0.310606884581,space,0.316304671127,space,0.30643750132,space,0.340449958094,space,0.383750912617,space,0.394246930126,j,1,0.90875249001,SPR,22,B,,m,59.8732130103,001,2017_01_11_1430,
爺爺羨慕總統拜訪的老人,爺爺羨慕老人？,的,拜訪,老人,爺爺,總統,f,羨慕,11,2,11,0,12,12,2,space,0.367249745366,space,0.34548043902,space,0.287097656168,space,0.309657153324,space,0.326590071243,space,0.366683992776,space,0.347720314516,f,1,1.05472266706,SPR,22,B,,m,59.8732130103,001,2017_01_11_1430,
老師今天分配了很多重要的任務,老師分配了任務?,的,很多重要,任務,老師,分配了,f,今天,11,3,45,0,13,13,20,space,0.333971595188,space,0.330979385937,space,0.295418695969,space,0.29176549059,space,0.321368201883,space,0.333967388855,space,0.326157719683,f,1,1.15225564926,SPR,22,B,,m,59.8732130103,001,2017_01_11_1430,
姐姐想要羨慕舞者的造型師,造型師討厭舞者？,的,舞者,造型師,姐姐,羨慕,j,想要,12,1,48,0,14,14,15,space,0.367332369889,space,0.305731136832,space,0.325829024339,space,0.330967668269,space,0.342643263401,space,0.400584681105,space,0.574272528698,j,1,1.01501903369,SPR,22,B,,m,59.8732130103,001,2017_01_11_1430,
小林懷疑攔住廣播員的大叔,大叔沒攔廣播員？,的,廣播員,大叔,小林,攔住,j,懷疑,12,1,46,0,15,15,13,space,0.35014406711,space,0.306934450215,space,0.310415796601,space,0.309603372283,space,0.37215583885,space,0.483822720838,space,0.426057368444,j,1,1.56797143296,SPR,22,B,,m,59.8732130103,001,2017_01_11_1430,
叔叔推薦小王欣賞的村長,村長推薦叔叔？,的,欣賞,村長,叔叔,小王,j,推薦,11,2,12,0,16,16,3,space,0.350522938068,space,0.317256505557,space,0.31995397064,space,0.364003653507,space,0.299509961522,space,0.383625924267,space,0.458794102713,j,1,0.868467780951,SPR,22,B,,m,59.8732130103,001,2017_01_11_1430,
院長刁難醫生厭煩的病人,病人刁難院長？,的,厭煩,病人,院長,醫生,j,刁難,11,2,10,0,17,17,1,space,0.367163515417,space,0.293138559806,space,0.325552908238,space,0.293574516792,space,0.378014968548,space,0.350572212337,space,0.32625476594,j,1,1.86945987603,SPR,22,B,,m,59.8732130103,001,2017_01_11_1430,
飛上太空是許多人心中的夢想,飛上太空是夢想?,的,心中,夢想,飛上太空,許多人,f,是,13,3,43,0,18,18,18,space,0.333875750759,space,0.329827750422,space,0.330356847757,space,0.297056464085,space,0.326758625248,space,0.283737392252,space,0.343079520841,f,1,1.54779242318,SPR,22,B,,m,59.8732130103,001,2017_01_11_1430,
旅客結識佩服科學家的商人,商人佩服科學家？,的,科學家,商人,旅客,佩服,f,結識,12,1,45,0,19,19,12,space,0.334047008844,space,0.309238021699,space,0.330635968407,space,0.293036105417,space,0.333542248161,space,0.383876802342,space,0.330851693507,f,1,2.42982234227,SPR,22,B,,m,59.8732130103,001,2017_01_11_1430,
今年新出了很多部好看的美劇,今年有很多美劇?,的,好看,美劇,今年,很多部,f,新出了,13,3,41,0,20,20,16,space,0.317318999732,space,0.277964792942,space,0.28888024253,space,0.282741691728,space,0.277508104715,space,0.317165468354,space,0.360366973036,f,1,0.952084391174,SPR,22,B,,m,59.8732130103,001,2017_01_11_1430,
姐姐非常喜歡吃抹茶霜淇淋,姐姐討厭霜淇淋?,抹茶,吃,霜淇淋,姐姐,喜歡,j,非常,12,3,46,0,21,21,21,space,0.333500184788,space,0.283975050406,space,0.294567212783,space,0.30678392337,space,0.297396576643,space,0.311003181792,space,0.425503633975,j,1,0.807851732548,SPR,22,B,,m,59.8732130103,001,2017_01_11_1430,
舅舅斥責讚賞女婿的工程師,工程師讚賞女婿？,的,女婿,工程師,舅舅,讚賞,f,斥責,12,1,47,0,22,22,14,space,0.300647475742,space,0.279778325945,space,0.292624184644,space,0.266633216248,space,0.344261201637,space,0.343124588762,space,0.440564430595,j,0,1.03181103923,SPR,22,B,,m,59.8732130103,001,2017_01_11_1430,
心理師理解關心小金的助教,心理師理解助教？,的,小金,助教,心理師,關心,f,理解,12,1,41,0,23,23,8,space,0.400540214105,space,0.340607996259,space,0.364241912554,space,0.430073220341,space,0.442764946783,space,0.433882060272,space,0.414742917579,f,1,0.946059711991,SPR,22,B,,m,59.8732130103,001,2017_01_11_1430,
警衛攔住責備治療師的婦女,婦女沒責備治療師？,的,治療師,婦女,警衛,責備,j,攔住,12,1,62,0,0,0,13,space,1.26619245204,space,0.540834838102,space,0.465741772859,space,0.429656191875,space,0.471161039677,space,0.617154051157,space,1.07699823634,j,1,1.56080984043,SPR,22,B,,m,59.8732130103,001,2017_01_11_1430,
律師帮助上尉惹怒的服務員,律師無視服務員？,的,惹怒,服務員,律師,上尉,j,幫助,12,2,30,0,1,1,5,space,0.400550429506,space,0.408411476092,space,0.425947102281,space,0.391803948543,space,0.42556402499,space,0.400547124518,space,0.493819385811,j,1,1.07104927124,SPR,22,B,,m,59.8732130103,001,2017_01_11_1430,
店長錯怪顧客熟悉的職工,店長錯怪職工？,的,熟悉,職工,店長,顧客,f,錯怪,11,2,25,0,2,2,0,space,0.450571611422,space,0.359533216557,space,0.344010924469,space,0.358383984669,space,0.327922579338,space,0.333955971655,space,0.376789722111,f,1,0.803560065018,SPR,22,B,,m,59.8732130103,001,2017_01_11_1430,
政府豁免犯人檢舉的同伴,同伴豁免政府？,的,檢舉,同伴,政府,犯人,j,豁免,11,2,26,0,3,3,1,space,0.417233971602,space,0.393092890983,space,0.340496227815,space,0.376504892876,space,0.326571142708,space,0.367215794206,space,0.35901974274,j,1,1.1022582031,SPR,22,B,,m,59.8732130103,001,2017_01_11_1430,
媽媽的拿手菜是糖醋排骨,媽媽有拿手菜?,糖醋,是,排骨,媽媽,拿手菜,f,的,11,3,59,0,4,4,18,space,0.350618181605,space,0.296775540744,space,0.316404421465,space,0.306417971893,space,0.35058513179,space,0.322719037591,space,0.526924174745,f,1,1.48111263674,SPR,22,B,,m,59.8732130103,001,2017_01_11_1430,
小明認識捧紅大姑姑的明星,小明認識大姑姑？,的,大姑姑,明星,小明,捧紅,j,認識,12,1,60,0,5,5,11,space,0.317283546305,space,0.298669895536,space,0.316179081885,space,0.309150589936,space,0.359051290288,space,0.400811522966,space,0.346940339092,j,1,4.01461883058,SPR,22,B,,m,59.8732130103,001,2017_01_11_1430,
外婆感激叔叔協助的警察,外婆感激警察？,的,協助,警察,外婆,叔叔,f,感激,11,2,31,0,6,6,6,space,0.333439493319,space,0.297784160735,space,0.272480027401,space,0.332289360071,space,0.342438354608,space,0.417280241323,space,0.599674609635,f,1,0.854948006658,SPR,22,B,,m,59.8732130103,001,2017_01_11_1430,
助手賄賂小吳批評的評論家,助手賄賂評論家？,的,批評,評論家,助手,小吳,f,賄賂,12,2,29,0,7,7,4,space,0.400127091532,space,0.347608245618,space,0.291693381922,space,0.342088026649,space,0.416373174376,space,0.350567405083,space,0.405337844131,j,0,2.79937565912,SPR,22,B,,m,59.8732130103,001,2017_01_11_1430,
大叔喜歡孩子親近的阿姨,大叔喜歡阿姨？,的,親近,阿姨,大叔,孩子,f,喜歡,11,2,27,0,8,8,2,space,0.45049439506,space,0.364972313284,space,0.417199719974,space,0.342339806099,space,0.419437792749,space,0.40062343952,space,0.427341804098,f,1,0.835446217447,SPR,22,B,,m,59.8732130103,001,2017_01_11_1430,
海關扣留侮辱空服員的旅客,海關扣留空服員？,的,空服員,旅客,海關,侮辱,j,扣留,12,1,58,0,9,9,9,space,0.417237577029,space,0.442110560616,space,0.477421574324,space,0.493231700166,space,0.893172210519,space,0.700459692758,space,0.479887390291,j,1,1.20283357019,SPR,22,B,,m,59.8732130103,001,2017_01_11_1430,
教授排斥支持小林的研究員,研究員不支持小林？,的,小林,研究員,教授,支持,j,排斥,12,1,64,0,10,10,15,space,0.40051737969,space,0.414014620037,space,0.347723619489,space,0.353532573587,space,0.346479744971,space,0.383783661979,space,0.372804215949,j,1,3.07974557659,SPR,22,B,,m,59.8732130103,001,2017_01_11_1430,
隔壁的大伯擅長修理各種電器,大伯不會修電器?,各種,修理,電器,隔壁的,擅長,j,大伯,13,3,64,0,11,11,23,space,0.317303676638,space,0.372233956572,space,0.326073292454,space,0.40988820151,space,0.326667888512,space,0.386291841816,space,0.426985767554,j,1,0.836596651148,SPR,22,B,,m,59.8732130103,001,2017_01_11_1430,
熱鬧的夜市有很多美味的食物,夜市很多美食?,的,美味,食物,熱鬧的,有很多,f,夜市,13,3,61,0,12,12,20,space,0.367240431326,space,0.354995177739,space,0.361298376651,space,0.398208700499,space,0.360215244364,space,0.400898954729,space,0.415743725796,f,1,0.735289080651,SPR,22,B,,m,59.8732130103,001,2017_01_11_1430,
群眾反感討好主播的發言人,群眾反感發言人？,的,主播,發言人,群眾,討好,f,反感,12,1,57,0,13,13,8,space,0.350527444854,space,0.38286938415,space,0.32583653566,space,0.337402465506,space,0.464867154806,space,0.517201823153,space,0.472674119897,f,1,1.01804729729,SPR,22,B,,m,59.8732130103,001,2017_01_11_1430,
法官偏袒詆毀代理商的律師,律師詆毀代理商？,的,代理商,律師,法官,詆毀,f,偏袒,12,1,61,0,14,14,12,space,0.367222404166,space,0.308673170468,space,0.376991325931,space,0.330160952566,space,0.407465650744,space,0.433447905991,space,0.398412407492,f,1,1.00290387614,SPR,22,B,,m,59.8732130103,001,2017_01_11_1430,
朋友們推薦了許多好聽的歌曲,朋友推薦了歌曲?,的,好聽,歌曲,朋友們,許多,f,推薦了,13,3,57,0,15,15,16,space,0.333896481985,space,0.342125883704,space,0.346948751772,space,0.417280541777,space,0.391717117687,space,0.433839996884,space,0.491828886137,f,1,1.11640742599,SPR,22,B,,m,59.8732130103,001,2017_01_11_1430,
上司懲罰責罵小明的管理員,上司懲罰管理員？,的,小明,管理員,上司,責罵,f,懲罰,12,1,59,0,16,16,10,space,0.350546673828,space,0.330760656303,space,0.309768320847,space,0.324534974206,space,0.33098088819,space,0.367239830433,space,0.389082146794,f,1,0.901729406221,SPR,22,B,,m,59.8732130103,001,2017_01_11_1430,
我今天學會了一個新的技能,我沒學會技能?,新的,一個,技能,我,學會了,j,今天,12,3,60,0,17,17,19,space,0.33346683452,space,0.297431128711,space,0.250565602357,space,0.295274478631,space,0.345016539926,space,0.31471978272,space,0.359797615005,j,1,0.922189339326,SPR,22,B,,m,59.8732130103,001,2017_01_11_1430,
導演無視撞見業務員的藝人,藝人撞見業務員？,的,業務員,藝人,導演,撞見,f,無視,12,1,63,0,18,18,14,space,0.333981510135,space,0.2584951522,space,0.330686744914,space,0.376641899347,space,0.321759090948,space,0.400562447612,space,0.441538498519,f,1,1.15091412759,SPR,22,B,,m,59.8732130103,001,2017_01_11_1430,
每個人都應該要遵守交通規則,交通規則要遵守?,交通,遵守,規則,每個人,要,f,都應該,13,3,63,0,19,19,22,space,0.267352800671,space,0.275099975654,space,0.273318891574,space,0.283594677181,space,0.277017465327,space,0.30712073094,space,0.410106931144,f,1,0.823659454807,SPR,22,B,,m,59.8732130103,001,2017_01_11_1430,
小明昨天吃了一碗美味的小米粥,昨天沒吃小米粥?,的,美味,小米粥,小明,吃了一碗,j,昨天,12,3,58,0,20,20,17,space,0.383904744449,space,0.373640976948,space,0.326457571558,space,0.343969762427,space,0.364350676464,space,0.350144668017,space,0.357688736927,j,1,0.747561374999,SPR,22,B,,m,59.8732130103,001,2017_01_11_1430,
童年的回憶總是美好而快樂的,童年回憶很痛苦?,而,美好,快樂的,童年的,總是,j,回憶,13,3,62,0,21,21,21,space,0.30056545214,space,0.271490035477,space,0.337043724896,space,0.297015302058,space,0.315082429224,space,0.479979929747,space,0.389280445626,j,1,0.730796410193,SPR,22,B,,m,59.8732130103,001,2017_01_11_1430,
朋友毆打駕駛員碰見的盜賊,朋友幫助盜賊？,的,碰見,盜賊,朋友,駕駛員,j,毆打,12,2,32,0,22,22,7,space,0.333710201274,space,0.349553076492,space,0.341582064168,space,0.32191773002,space,0.340223717139,space,0.450255234638,space,0.40898233639,j,1,1.00128623836,SPR,22,B,,m,59.8732130103,001,2017_01_11_1430,
鄰居尊敬市民信任的委員,委員尊敬鄰居？,的,信任,委員,鄰居,市民,j,尊敬,11,2,28,0,23,23,3,space,0.284198887719,space,0.259551544179,space,0.300452782336,space,0.259596311647,space,0.309431212838,space,0.317084646565,space,0.325825719352,j,1,1.08666230009,SPR,22,B,,m,59.8732130103,001,2017_01_11_1430,
偵探跟蹤老婆迷戀的編輯,偵探跟蹤編輯？,的,迷戀,編輯,偵探,老婆,f,跟蹤,11,2,17,0,0,0,0,space,0.507976720924,space,0.484589776795,space,0.442199795085,space,0.529398703846,space,0.593109716341,space,0.566748590121,space,0.626268586755,f,1,0.907542566638,SPR,22,B,,m,59.8732130103,001,2017_01_11_1430,
每週都有寫不完的作業和報告,每週都有作業?,作業和,的,報告,每週,寫不完,f,都有,13,3,53,0,1,1,20,space,0.383902941729,space,0.360158759242,space,0.316402618744,space,0.353717652513,space,0.317306681158,space,0.338626810597,space,0.3269485114,f,1,0.851090192926,SPR,22,B,,m,59.8732130103,001,2017_01_11_1430,
小王關注資助航海家的演員,小王關注演員？,的,航海家,演員,小王,資助,f,關注,12,1,51,0,2,2,10,space,0.334022672163,space,0.360933026081,space,0.325415601314,space,0.349705105589,space,0.372565656435,space,0.366762110498,space,0.345778488176,f,1,0.607568405583,SPR,22,B,,m,59.8732130103,001,2017_01_11_1430,
週六有場精彩的戲劇要公演了,週六沒有戲劇?,戲劇,的,要公演了,週六,精彩,j,有場,13,3,54,0,3,3,21,space,0.350614275711,space,0.309985848682,space,0.364505409656,space,0.341847363976,space,0.383464881568,space,0.406164690197,space,0.653799976571,j,1,0.749843013415,SPR,22,B,,m,59.8732130103,001,2017_01_11_1430,
科學家協助表姐熟識的院士,科學家排斥院士？,的,熟識,院士,科學家 ,表姐,j,協助,12,2,24,0,4,4,7,space,0.334043102965,space,0.322846129115,space,0.331585399195,space,0.330952645629,space,0.331150944461,space,0.400526693731,space,0.376957374756,j,1,0.808563505198,SPR,22,B,,m,59.8732130103,001,2017_01_11_1430,
外婆批評農夫辱罵的木匠,外婆批評木匠？,的,辱罵,木匠,外婆,農夫,f,批評,11,2,19,0,5,5,2,space,0.367215193299,space,0.349739056765,space,0.349526937091,space,0.39207135154,space,0.414498048558,space,0.400526994184,space,0.31053327363,f,1,0.770966646727,SPR,22,B,,m,59.8732130103,001,2017_01_11_1430,
博物館裡有很多珍貴的收藏品,有很多收藏品?,的,珍貴,收藏品,博物館裡,很多,j,有,13,3,56,0,6,6,23,space,0.317245689264,space,0.295606478961,space,0.366436419688,space,0.566184640251,space,0.376722420697,space,0.383866887394,space,0.358302261506,f,0,0.773264509626,SPR,22,B,,m,59.8732130103,001,2017_01_11_1430,
音樂可以讓人身心得到放鬆,音樂會讓人放鬆?,得到,身心,放鬆,音樂,讓人,f,可以,12,3,51,0,7,7,18,space,0.450587234969,space,0.343317779887,space,0.340590569991,space,0.359964366304,space,0.309592255537,space,0.343702960366,space,0.357849779612,f,1,0.779778926837,SPR,22,B,,m,59.8732130103,001,2017_01_11_1430,
每個人的相處方式都不一樣,相處方式都一樣?,都,方式,不一樣,每個人,相處,j,的,12,3,50,0,8,8,17,space,0.350563499203,space,0.378355982466,space,0.367228112766,space,0.359317191003,space,0.356504051597,space,0.38395461961,space,0.404774495168,j,1,0.695551796554,SPR,22,B,,m,59.8732130103,001,2017_01_11_1430,
小張欽佩袒護隊長的消防員,校長欽佩隊長？,的,隊長,消防員,小張,袒護,j,欽佩,12,1,52,0,9,9,11,space,0.300555236739,space,0.280655948503,space,0.309393355798,space,0.313588577992,space,0.333195826111,space,0.400077216371,space,0.356958937118,j,1,1.61707202754,SPR,22,B,,m,59.8732130103,001,2017_01_11_1430,
主任指責上司嘲笑的會計,主任指責會計？,的,嘲笑,會計,主任,上司,f,指責,11,2,23,0,10,10,6,space,0.300619834088,space,0.345987603316,space,0.34363716119,space,0.380844933316,space,0.432691065434,space,0.383904744449,space,0.508236011665,f,1,0.629628550232,SPR,22,B,,m,59.8732130103,001,2017_01_11_1430,
桌子上擺滿了一大堆舊的文件,桌上沒有文件?,的,舊,文件,桌子上,一大堆,j,擺滿了,12,3,52,0,11,11,19,space,0.383865084674,space,0.388231264515,space,0.423216587384,space,0.413277609361,space,0.427359530819,space,0.350631101071,space,0.409478984831,j,1,2.15568892322,SPR,22,B,,m,59.8732130103,001,2017_01_11_1430,
親近大自然的最好方式是旅遊,旅遊能親近自然?,是,最好方式,旅遊,親近,的,f,大自然,13,3,55,0,12,12,22,space,0.383889120916,space,0.31526119863,space,0.324916248792,space,0.316405022357,space,0.333263728447,space,0.333806045717,space,0.313137297911,f,1,0.959605625685,SPR,22,B,,m,59.8732130103,001,2017_01_11_1430,
鄰居告發表弟砍傷的疑犯,鄰居告發疑犯？,的,砍傷,疑犯,鄰居,表弟,f,告發,11,2,21,0,13,13,4,space,0.367226910967,space,0.266281085598,space,0.364129543217,space,0.308864258448,space,0.35874152348,space,0.382843244777,space,0.414129693439,f,1,1.03175185004,SPR,22,B,,m,59.8732130103,001,2017_01_11_1430,
青年佩服督促小謝的技術員,青年佩服小謝？,的,小謝,技術員,青年,督促,j,佩服,12,1,50,0,14,14,9,space,0.333841799584,space,0.358942225939,space,0.316661008139,space,0.373213432642,space,0.383117558158,space,0.367132268322,space,0.355015308072,j,1,1.48380168914,SPR,22,B,,m,59.8732130103,001,2017_01_11_1430,
贊助商支持拉攏貴族的青年,青年排斥貴族？,的,貴族,青年,贊助商,拉攏,j,支持,12,1,54,0,15,15,13,space,0.334056923792,space,0.288590906493,space,0.296997274898,space,0.32661440791,space,0.392199644863,space,0.367214892845,space,0.664451628603,j,1,1.26198521171,SPR,22,B,,m,59.8732130103,001,2017_01_11_1430,
校園門口的那棵樹長滿了新葉,樹長滿了新葉?,長滿了,樹,新葉,校園門口,那棵,f,的,13,3,49,0,16,16,16,space,0.31714533802,space,0.317232769783,space,0.367013589479,space,0.360240782858,space,0.396457962153,space,0.404266729965,space,0.391733642595,f,1,0.848574501768,SPR,22,B,,m,59.8732130103,001,2017_01_11_1430,
阿姨看見驅趕交警的行政人員,行政人員驅趕交警？,的,交警,行政人員,阿姨,驅趕,f,看見,13,1,53,0,17,17,12,space,0.33390309196,space,0.300525792365,space,0.379206864745,space,0.342322680284,space,0.36323749891,space,0.516581087693,space,0.569342398987,f,1,2.41821044314,SPR,22,B,,m,59.8732130103,001,2017_01_11_1430,
同伴欺負小郭取笑的廚師,同伴關心廚師？,的,取笑,廚師,同伴,小郭,j,欺負,11,2,22,0,18,18,5,space,0.317363166294,space,0.295931568864,space,0.374409835626,space,0.382577644516,space,0.404213249363,space,0.533904594224,space,0.894768516155,j,1,0.761828375355,SPR,22,B,,m,59.8732130103,001,2017_01_11_1430,
媽媽討厭忽視小白的企業家,企業家忽視小白？,的,小白,企業家,媽媽,忽視,f,討厭,12,1,55,0,19,19,14,space,0.433456018218,space,0.383809801366,space,0.449774510183,space,0.406905907206,space,0.481167920065,space,0.400131598319,space,0.356356228833,f,1,1.13392832999,SPR,22,B,,m,59.8732130103,001,2017_01_11_1430,
妹妹迷戀表哥結識的中醫師,中醫師迷戀妹妹？,的,結識,中醫師,妹妹,表哥,j,迷戀,12,2,20,0,20,20,3,space,0.283894529057,space,0.295730866419,space,0.317179289195,space,0.313500845776,space,0.296722060142,space,0.383960628678,space,0.375951458846,j,1,2.80362916917,SPR,22,B,,m,59.8732130103,001,2017_01_11_1430,
治療師開導照顧小崔的飛行員,治療師開導飛行員？,的,小崔,飛行員,治療師,照顧,f,開導,13,1,49,0,21,21,8,space,0.300625843141,space,0.346779596861,space,0.296205281353,space,0.344512680604,space,0.324464367804,space,0.400539012291,space,0.374477737947,f,1,0.83598312657,SPR,22,B,,m,59.8732130103,001,2017_01_11_1430,
老闆責罵雇主同情的技工,技工責罵老闆？,的,同情,技工,老闆,雇主,j,責罵,11,2,18,0,22,22,1,space,0.383446553955,space,0.300167051755,space,0.264380120847,space,0.326605394337,space,0.349655230428,space,0.417124306332,space,0.3478756486,j,1,0.955267087498,SPR,22,B,,m,59.8732130103,001,2017_01_11_1430,
刑警緝拿輕視政府的逃亡者,逃亡者重視政府？,的,政府,逃亡者,刑警,輕視,j,緝拿,12,1,56,0,23,23,15,space,0.333790722623,space,0.288432868329,space,0.374922708521,space,0.341627132089,space,0.448934744665,space,0.450499202285,space,0.354881306135,j,1,1.81266318342,SPR,22,B,,m,59.8732130103,001,2017_01_11_1430,
爺爺一句話就把大家逗開心了,爺爺逗大家開心?,逗,大家,開心了,爺爺,就把,f,一句話,12,3,33,0,0,0,16,space,0.466601368258,space,0.433858324497,space,0.440522968114,space,0.392660539423,space,0.429348828678,space,0.425574240377,space,0.492785828246,f,1,0.697995078575,SPR,22,B,,m,59.8732130103,001,2017_01_11_1430,
每年都會頒布新的法規制度,年年都沒新制度?,法規,的,制度,每年,新,j,都會頒布,12,3,34,0,1,1,17,space,0.367140681003,space,0.363265140564,space,0.317074431165,space,0.367114842069,space,0.333530830962,space,0.381345788104,space,0.409240124878,j,1,1.2840769039,SPR,22,B,,m,59.8732130103,001,2017_01_11_1430,
善待動物們是對生命的尊重,應該善待動物?,的,生命,尊重,善待,是對,f,動物們,12,3,35,0,2,2,18,space,0.400541716372,space,0.343111969749,space,0.354723267956,space,0.375248399345,space,0.338755704841,space,0.367320351768,space,0.364547773497,f,1,0.93775279347,SPR,22,B,,m,59.8732130103,001,2017_01_11_1430,
小劉愛慕領隊欽佩的組長,小劉討厭組長？,的,欽佩,組長,小劉,領隊,j,愛慕,11,2,6,0,3,3,5,space,0.350580024096,space,0.390826876101,space,0.41511457767,space,0.492234497375,space,0.614445168874,space,0.500531500977,space,0.361004834296,j,1,0.704396826011,SPR,22,B,,m,59.8732130103,001,2017_01_11_1430,
老師調查弟弟傷害的同學,同學調查老師？,的,傷害,同學,老師,弟弟,j,調查,11,2,4,0,4,4,3,space,0.417352950884,space,0.397063674958,space,0.391609856044,space,0.365672368251,space,0.413308255535,space,0.400624040441,space,0.514390786921,j,1,1.4661473841,SPR,22,B,,m,59.8732130103,001,2017_01_11_1430,
村民擔心襲擊刺客的鐵匠,鐵匠襲擊了刺客？,的,刺客,鐵匠,村民,襲擊,f,擔心,11,1,39,0,5,5,14,space,0.417358359045,space,0.364204055513,space,0.424553902732,space,0.391021569507,space,0.338705829679,space,0.334041300244,space,0.34064855738,f,1,3.41215211323,SPR,22,B,,m,59.8732130103,001,2017_01_11_1430,
聽說吃黑巧克力可以提高智商,吃巧克力沒有益處?,提高,可以,智商,聽說,黑巧克力,j,吃,13,3,40,0,6,6,23,space,0.366754599178,space,0.374642686525,space,0.333710802181,space,0.30894147481,space,0.313562138152,space,0.329228647577,space,0.384259278726,j,1,0.859758556151,SPR,22,B,,m,59.8732130103,001,2017_01_11_1430,
外婆檢舉救治嬸嬸的鄰居,鄰居沒救嬸嬸？,的,嬸嬸,鄰居,外婆,救治,j,檢舉,11,1,38,0,7,7,13,space,0.350518731721,space,0.416345532707,space,0.432820861039,space,0.45849004449,space,0.461166177425,space,0.433417560256,space,0.449837905719,j,1,0.973336918731,SPR,22,B,,m,59.8732130103,001,2017_01_11_1430,
敵人搜查掩護戰士的村民,村民沒掩護戰士？,的,戰士,村民,敵人,掩護,j,搜查,11,1,40,0,8,8,15,space,0.433934939952,space,0.361600932607,space,0.358987594314,space,0.357938713641,space,0.392831797522,space,0.433998335502,space,0.44749918126,f,0,1.71386259091,SPR,22,B,,m,59.8732130103,001,2017_01_11_1430,
名嘴毀謗徐總賞識的詩人,名嘴稱讚詩人？,的,賞識,詩人,名嘴,徐總,j,毀謗,11,2,8,0,9,9,7,space,0.383802890952,space,0.434718520803,space,0.391392027785,space,0.424485099036,space,0.430620945757,space,0.417182293721,space,0.375850807162,j,1,0.884495735081,SPR,22,B,,m,59.8732130103,001,2017_01_11_1430,
商人質疑賄賂小陳的企劃員,商人質疑小陳？,的,小陳,企劃員,商人,賄賂,j,質疑,12,1,36,0,10,10,11,space,0.333934639493,space,0.348300188387,space,0.376298181363,space,0.433807247522,space,0.509219393629,space,0.400517980597,space,0.456250168994,j,1,1.34605430384,SPR,22,B,,m,59.8732130103,001,2017_01_11_1430,
阿姨親手製作了一個生日蛋糕,阿姨沒做蛋糕?,生日,一個,蛋糕,阿姨,製作了,j,親手,13,3,38,0,11,11,21,space,0.300661897476,space,0.316629761059,space,0.362096679703,space,0.352906730448,space,0.34774314893,space,0.376900589181,space,0.459912988881,j,1,0.788612238641,SPR,22,B,,m,59.8732130103,001,2017_01_11_1430,
村民援助小潘舉薦的水手,村民援助水手？,的,舉薦,水手,村民,小潘,f,援助,11,2,7,0,12,12,6,space,0.317282945398,space,0.331055100032,space,0.374722606968,space,0.357584780257,space,0.450389537029,space,0.500184177552,space,0.358377975615,f,1,1.59569210801,SPR,22,B,,m,59.8732130103,001,2017_01_11_1430,
校長相信房東厭惡的小孩,小孩相信校長？,的,厭惡,小孩,校長,房東,j,相信,11,2,2,0,13,13,1,space,0.317205729036,space,0.314313570547,space,0.365579227888,space,0.308939972543,space,0.390511701131,space,0.450443618538,space,0.414928597398,j,1,1.11567071576,SPR,22,B,,m,59.8732130103,001,2017_01_11_1430,
小李暗戀招待船長的賓客,賓客招待過船長？,的,船長,賓客,小李,招待,f,暗戀,11,1,37,0,14,14,12,space,0.316697362927,space,0.303875540441,space,0.309420696984,space,0.326429028544,space,0.376026872502,space,0.467237727251,space,0.441692630804,f,1,2.4306404752,SPR,22,B,,m,59.8732130103,001,2017_01_11_1430,
證人揭發指使搶匪的殺手,證人揭發殺手？,的,搶匪,殺手,證人,指使,f,揭發,11,1,35,0,15,15,10,space,0.350569508242,space,0.341207099103,space,0.308339667885,space,0.330824953213,space,0.355724376626,space,0.383864784235,space,0.407794646526,f,1,1.55138463664,SPR,22,B,,m,59.8732130103,001,2017_01_11_1430,
留學的生活能夠磨礪人的意志,留學能鍛鍊人?,人的,磨礪,意志,留學的,能夠,f,生活,13,3,37,0,16,16,20,space,0.283795980533,space,0.291883268088,space,0.331759361361,space,0.26393665254,space,0.295501620931,space,0.298002289448,space,0.343369758237,f,1,2.39636001454,SPR,22,B,,m,59.8732130103,001,2017_01_11_1430,
強盜綁架誣陷主人的管家,強盜綁架主人？,的,主人,管家,強盜,誣陷,j,綁架,11,1,34,0,17,17,9,space,0.300479222191,space,0.307810870974,space,0.275029068813,space,0.300222935955,space,0.331670727785,space,0.416818745842,space,0.364022882481,j,1,0.969589972083,SPR,22,B,,m,59.8732130103,001,2017_01_11_1430,
助教嫌棄愛慕局長的學生,助教嫌棄學生？,的,局長,學生,助教,愛慕,f,嫌棄,11,1,33,0,18,18,8,space,0.300696149105,space,0.280210076584,space,0.307477969298,space,0.331473931219,space,0.399669201492,space,0.467195363424,space,0.397225919456,f,1,0.934925232315,SPR,22,B,,m,59.8732130103,001,2017_01_11_1430,
粉絲大罵小周羞辱的導演,粉絲大罵導演？,的,羞辱,導演,粉絲,小周,f,大罵,11,2,5,0,19,19,4,space,0.283883111857,space,0.291256824028,space,0.330646183807,space,0.308698408495,space,0.357944422241,space,0.516846988408,space,0.447008541872,f,1,0.919916714498,SPR,22,B,,m,59.8732130103,001,2017_01_11_1430,
小紅取笑小張崇拜的作家,小紅取笑作家？,的,崇拜,作家,小紅,小張,f,取笑,11,2,1,0,20,20,0,space,0.333882360719,space,0.295713139698,space,0.280348284869,space,0.31460921609,space,0.342213315453,space,0.367235624086,space,0.330832764972,f,1,1.06115025343,SPR,22,B,,m,59.8732130103,001,2017_01_11_1430,
和朋友們一起喝下午茶很開心,喝下午茶很開心?,下午茶,喝,很開心,和,一起,f,朋友們,13,3,39,0,21,21,22,space,0.300650179823,space,0.300020731243,space,0.279749782931,space,0.340952315135,space,0.313780266864,space,0.32136309419,space,0.450715227853,f,1,0.79585946021,SPR,22,B,,m,59.8732130103,001,2017_01_11_1430,
手機是個既方便又重要的發明,手機讓人不方便?,的,又重要,發明,手機,既方便,j,是個,13,3,36,0,22,22,19,space,0.317199119076,space,0.26355147206,space,0.312927882318,space,0.285872109278,space,0.522476872648,space,0.384050464054,space,0.413099140409,j,1,0.707576517816,SPR,22,B,,m,59.8732130103,001,2017_01_11_1430,
王董賞識工人表揚的廠長,王董賞識廠長？,的,表揚,廠長,王董,工人,f,賞識,11,2,3,0,23,23,2,space,0.317291958985,space,0.291542855091,space,0.297588866422,space,0.279909022895,space,0.259380886986,space,0.284008100207,space,0.320292280463,f,1,0.905354369024,SPR,22,B,,m,59.8732130103,001,2017_01_11_1430,
