Sentences,Question,word5,word4,word6,word1,word3,Ans,word2,lenth,Type,ID,practicetrials.thisRepN,practicetrials.thisTrialN,practicetrials.thisN,practicetrials.thisIndex,key_resp_12.keys,key_resp_12.rt,Atests1.keys,Atests1.rt,Atests2.keys,Atests2.rt,Atests3.keys,Atests3.rt,Atests4.keys,Atests4.rt,Atests5.keys,Atests5.rt,Atests6.keys,Atests6.rt,key_resp_8.keys,key_resp_8.corr,key_resp_8.rt,expName,participant,version,Grade,Gender,frameRate,session,date,
治療師開導照顧小崔的飛行員,治療師開導飛行員？,的,小崔,飛行員,治療師,照顧,f,開導,13,1,49,0,0,0,8,space,1.01656806191,space,0.75563888879,space,0.788594137906,space,0.827663973265,space,0.660781228464,space,0.71738869822,space,1.47545707667,f,1,2.80943318618,SPR,24,B,,f,59.8976172448,001,2017_01_13_1733,
刑警緝拿輕視政府的逃亡者,逃亡者重視政府？,的,政府,逃亡者,刑警,輕視,j,緝拿,12,1,56,0,1,1,15,space,0.550530590801,space,0.623854848352,space,0.677596265436,space,0.694352413018,space,0.694360525318,space,0.617187122087,space,0.77191731082,j,1,2.58588678627,SPR,24,B,,f,59.8976172448,001,2017_01_13_1733,
鄰居告發表弟砍傷的疑犯,鄰居告發疑犯？,的,砍傷,疑犯,鄰居,表弟,f,告發,11,2,21,0,2,2,4,space,0.450637282833,space,0.731275488084,space,0.611346852471,space,0.594906784943,space,0.824529312667,space,1.13375443286,space,1.86128743723,f,1,2.49205698696,SPR,24,B,,f,59.8976172448,001,2017_01_13_1733,
媽媽討厭忽視小白的企業家,企業家忽視小白？,的,小白,企業家,媽媽,忽視,f,討厭,12,1,55,0,3,3,14,space,0.767078161603,space,0.648948357863,space,0.543269463335,space,0.627671845243,space,0.647349930339,space,0.400552719409,space,1.42053847178,f,1,5.75089858969,SPR,24,B,,f,59.8976172448,001,2017_01_13_1733,
博物館裡有很多珍貴的收藏品,有很多收藏品?,的,珍貴,收藏品,博物館裡,很多,j,有,13,3,56,0,4,4,23,space,0.650634819103,space,0.468140064302,space,0.850390788488,space,0.495493005219,space,0.545456484775,space,0.500600762374,space,0.691474342093,f,0,4.27442386754,SPR,24,B,,f,59.8976172448,001,2017_01_13_1733,
青年佩服督促小謝的技術員,青年佩服小謝？,的,小謝,技術員,青年,督促,j,佩服,12,1,50,0,5,5,9,space,0.833750016158,space,0.593892744917,space,1.94407606832,space,0.473781431865,space,0.513769461686,space,0.450537230892,space,0.756450120796,j,1,4.42453754517,SPR,24,B,,f,59.8976172448,001,2017_01_13_1733,
科學家協助表姐熟識的院士,科學家排斥院士？,的,熟識,院士,科學家 ,表姐,j,協助,12,2,24,0,6,6,7,space,0.467329733656,space,0.447797970788,space,0.661046531357,space,0.794493597423,space,0.673976367922,space,0.783785935695,space,0.978398393636,j,1,5.24897672095,SPR,24,B,,f,59.8976172448,001,2017_01_13_1733,
偵探跟蹤老婆迷戀的編輯,偵探跟蹤編輯？,的,迷戀,編輯,偵探,老婆,f,跟蹤,11,2,17,0,7,7,0,space,0.500564407164,space,0.460076718518,space,0.555115553987,space,0.545207106028,space,1.07610888657,space,0.55046599271,space,0.760227156992,f,1,2.72378661473,SPR,24,B,,f,59.8976172448,001,2017_01_13_1733,
每週都有寫不完的作業和報告,每週都有作業?,作業和,的,報告,每週,寫不完,f,都有,13,3,53,0,8,8,20,space,0.450542639112,space,0.495602671785,space,0.424679961463,space,0.413798635986,space,0.400382961598,space,0.509175184343,space,0.777890382116,f,1,2.28956205789,SPR,24,B,,f,59.8976172448,001,2017_01_13_1733,
週六有場精彩的戲劇要公演了,週六沒有戲劇?,戲劇,的,要公演了,週六,精彩,j,有場,13,3,54,0,9,9,21,space,0.400589375087,space,0.376493380492,space,0.377515532848,space,0.389869394654,space,0.483425177823,space,0.844214608718,space,0.972144095242,j,1,1.44306668537,SPR,24,B,,f,59.8976172448,001,2017_01_13_1733,
老闆責罵雇主同情的技工,技工責罵老闆？,的,同情,技工,老闆,雇主,j,責罵,11,2,18,0,10,10,1,space,0.383900529734,space,0.407842089786,space,0.34352761539,space,0.511754902167,space,0.631650788055,space,0.567132303826,space,3.12672285399,j,1,1.73886681705,SPR,24,B,,f,59.8976172448,001,2017_01_13_1733,
主任指責上司嘲笑的會計,主任指責會計？,的,嘲笑,會計,主任,上司,f,指責,11,2,23,0,11,11,6,space,0.433652187581,space,0.46723418856,space,0.409068552413,space,0.527988255766,space,0.860741207682,space,0.533903038551,space,1.17844340201,f,1,1.3739286855,SPR,24,B,,f,59.8976172448,001,2017_01_13_1733,
桌子上擺滿了一大堆舊的文件,桌上沒有文件?,的,舊,文件,桌子上,一大堆,j,擺滿了,12,3,52,0,12,12,19,space,0.450601228076,space,0.444530508481,space,0.569645620795,space,0.758447854765,space,0.562181084417,space,0.400353216421,space,0.794796757837,j,1,0.968717691561,SPR,24,B,,f,59.8976172448,001,2017_01_13_1733,
外婆批評農夫辱罵的木匠,外婆批評木匠？,的,辱罵,木匠,外婆,農夫,f,批評,11,2,19,0,13,13,2,space,0.517310339215,space,0.693440828589,space,0.721974262313,space,0.528273088348,space,0.495514037175,space,0.633760291763,space,1.99485228217,j,0,4.52168348071,SPR,24,B,,f,59.8976172448,001,2017_01_13_1733,
贊助商支持拉攏貴族的青年,青年排斥貴族？,的,貴族,青年,贊助商,拉攏,j,支持,12,1,54,0,14,14,13,space,0.433857098775,space,0.586590454928,space,0.428542627677,space,0.486268996727,space,0.559295201616,space,0.400616115701,space,3.5323487781,j,1,3.52262300756,SPR,24,B,,f,59.8976172448,001,2017_01_13_1733,
阿姨看見驅趕交警的行政人員,行政人員驅趕交警？,的,交警,行政人員,阿姨,驅趕,f,看見,13,1,53,0,15,15,12,space,0.700500650331,space,0.493065618764,space,0.394076684257,space,0.372430610369,space,0.413626774985,space,0.417200402255,space,3.70566098734,f,1,1.66562097857,SPR,24,B,,f,59.8976172448,001,2017_01_13_1733,
音樂可以讓人身心得到放鬆,音樂會讓人放鬆?,得到,身心,放鬆,音樂,讓人,f,可以,12,3,51,0,16,16,18,space,0.517097315693,space,0.458918158998,space,0.447334066252,space,0.362101223131,space,0.374515476666,space,0.311538333277,space,0.544859177637,f,1,1.05538551397,SPR,24,B,,f,59.8976172448,001,2017_01_13_1733,
小張欽佩袒護隊長的消防員,校長欽佩隊長？,的,隊長,消防員,小張,袒護,j,欽佩,12,1,52,0,17,17,11,space,0.400554822612,space,0.361241016741,space,0.327217044527,space,0.394251549835,space,0.628843324361,space,0.66684023026,space,0.6908629135,j,1,1.78621091852,SPR,24,B,,f,59.8976172448,001,2017_01_13_1733,
每個人的相處方式都不一樣,相處方式都一樣?,都,方式,不一樣,每個人,相處,j,的,12,3,50,0,18,18,17,space,0.467523227533,space,0.374165144603,space,0.350138254958,space,0.359791615527,space,0.34409998465,space,0.399578039171,space,0.955581441536,j,1,2.53717620952,SPR,24,B,,f,59.8976172448,001,2017_01_13_1733,
小王關注資助航海家的演員,小王關注演員？,的,航海家,演員,小王,資助,f,關注,12,1,51,0,19,19,10,space,0.267419329743,space,0.359419650631,space,0.359322603239,space,0.310151727419,space,0.472057113133,space,0.383474182236,space,0.647247775196,f,1,1.13978008402,SPR,24,B,,f,59.8976172448,001,2017_01_13_1733,
校園門口的那棵樹長滿了新葉,樹長滿了新葉?,長滿了,樹,新葉,校園門口,那棵,f,的,13,3,49,0,20,20,16,space,0.317255115355,space,0.28210112697,space,0.300850201209,space,0.303497221234,space,0.2962949832,space,0.444015826841,space,0.292383943495,f,1,2.17016703267,SPR,24,B,,f,59.8976172448,001,2017_01_13_1733,
親近大自然的最好方式是旅遊,旅遊能親近自然?,是,最好方式,旅遊,親近,的,f,大自然,13,3,55,0,21,21,22,space,0.38388971331,space,0.359184393339,space,0.326047969051,space,0.350704615092,space,0.368630439043,space,0.363873614857,space,0.310679328686,f,1,1.67553393339,SPR,24,B,,f,59.8976172448,001,2017_01_13_1733,
同伴欺負小郭取笑的廚師,同伴關心廚師？,的,取笑,廚師,同伴,小郭,j,欺負,11,2,22,0,22,22,5,space,0.300652801408,space,0.276016285934,space,0.244347290223,space,0.244991768996,space,0.276136468456,space,0.400122766441,space,1.34199048094,j,1,1.03274823475,SPR,24,B,,f,59.8976172448,001,2017_01_13_1733,
妹妹迷戀表哥結識的中醫師,中醫師迷戀妹妹？,的,結識,中醫師,妹妹,表哥,j,迷戀,12,2,20,0,23,23,3,space,0.234009790671,space,0.232512015995,space,0.299307658541,space,0.276359106574,space,0.314022806429,space,0.500630507551,space,0.822554713843,j,1,1.15296891388,SPR,24,B,,f,59.8976172448,001,2017_01_13_1733,
朋友們推薦了許多好聽的歌曲,朋友推薦了歌曲?,的,好聽,歌曲,朋友們,許多,f,推薦了,13,3,57,0,0,0,16,space,0.767361191451,space,0.352194277439,space,0.309008491196,space,0.309931793425,space,0.307319926767,space,0.300606230681,space,0.326769064181,f,1,0.889230774774,SPR,24,B,,f,59.8976172448,001,2017_01_13_1733,
媽媽的拿手菜是糖醋排骨,媽媽有拿手菜?,糖醋,是,排骨,媽媽,拿手菜,f,的,11,3,59,0,1,1,18,space,0.333853823802,space,0.516282778655,space,0.300257701369,space,0.43930767657,space,0.233611385614,space,0.399429012832,space,0.341420214871,f,1,1.022951857,SPR,24,B,,f,59.8976172448,001,2017_01_13_1733,
上司懲罰責罵小明的管理員,上司懲罰管理員？,的,小明,管理員,上司,責罵,f,懲罰,12,1,59,0,2,2,10,space,0.283890945182,space,0.549145487254,space,0.293130577411,space,0.282836944476,space,0.242337237563,space,0.300486649066,space,0.373218106339,f,1,2.05748990993,SPR,24,B,,f,59.8976172448,001,2017_01_13_1733,
小明昨天吃了一碗美味的小米粥,昨天沒吃小米粥?,的,美味,小米粥,小明,吃了一碗,j,昨天,12,3,58,0,3,3,17,space,0.300617648027,space,0.329868270957,space,0.242139837763,space,0.209927016156,space,0.244162810064,space,0.26727541117,space,0.188956368031,j,1,2.43524100051,SPR,24,B,,f,59.8976172448,001,2017_01_13_1733,
教授排斥支持小林的研究員,研究員不支持小林？,的,小林,研究員,教授,支持,j,排斥,12,1,64,0,4,4,15,space,0.300608634338,space,0.305025642447,space,0.233072367002,space,0.232912524254,space,0.226831589127,space,0.250522268165,space,0.289411228834,f,0,1.91685502774,SPR,24,B,,f,59.8976172448,001,2017_01_13_1733,
朋友毆打駕駛員碰見的盜賊,朋友幫助盜賊？,的,碰見,盜賊,朋友,駕駛員,j,毆打,12,2,32,0,5,5,7,space,0.650367713446,space,0.601150266913,space,0.54173953984,space,0.555202385862,space,0.809073239521,space,1.16703207161,space,1.05373841252,j,1,0.913023008034,SPR,24,B,,f,59.8976172448,001,2017_01_13_1733,
我今天學會了一個新的技能,我沒學會技能?,新的,一個,技能,我,學會了,j,今天,12,3,60,0,6,6,19,space,2.5999153915,space,0.448251359339,space,0.393296399241,space,0.41121561316,space,1.03076972999,space,0.529673214711,space,0.564125637597,j,1,1.43301882569,SPR,24,B,,f,59.8976172448,001,2017_01_13_1733,
小明認識捧紅大姑姑的明星,小明認識大姑姑？,的,大姑姑,明星,小明,捧紅,j,認識,12,1,60,0,7,7,11,space,0.617183817056,space,0.415045529648,space,0.363065086945,space,0.34369857503,space,0.693143076394,space,0.367169920966,space,0.610614039542,j,1,1.14858585734,SPR,24,B,,f,59.8976172448,001,2017_01_13_1733,
警衛攔住責備治療師的婦女,婦女沒責備治療師？,的,治療師,婦女,警衛,責備,j,攔住,12,1,62,0,8,8,13,space,0.467216161182,space,0.438522283788,space,0.875861671127,space,0.813668418225,space,0.649165587776,space,0.483840708883,space,0.576190159991,j,1,5.91409173112,SPR,24,B,,f,59.8976172448,001,2017_01_13_1733,
店長錯怪顧客熟悉的職工,店長錯怪職工？,的,熟悉,職工,店長,顧客,f,錯怪,11,2,25,0,9,9,0,space,0.417106359426,space,0.44404887702,space,0.345863062234,space,0.309314355705,space,0.357128070391,space,0.383842241208,space,0.326365851826,f,1,1.16798271534,SPR,24,B,,f,59.8976172448,001,2017_01_13_1733,
熱鬧的夜市有很多美味的食物,夜市很多美食?,的,美味,食物,熱鬧的,有很多,f,夜市,13,3,61,0,10,10,20,space,0.417117175864,space,0.355736056343,space,0.281080777379,space,0.297980242598,space,0.266598783564,space,0.283852787223,space,0.278476121675,f,1,0.937379498238,SPR,24,B,,f,59.8976172448,001,2017_01_13_1733,
童年的回憶總是美好而快樂的,童年回憶很痛苦?,而,美好,快樂的,童年的,總是,j,回憶,13,3,62,0,11,11,21,space,0.467216762088,space,0.324356400073,space,0.261385265811,space,0.292225302561,space,0.280058925491,space,0.523048453688,space,0.37387520427,j,1,0.933183025059,SPR,24,B,,f,59.8976172448,001,2017_01_13_1733,
政府豁免犯人檢舉的同伴,同伴豁免政府？,的,檢舉,同伴,政府,犯人,j,豁免,11,2,26,0,12,12,1,space,0.284089847264,space,0.232786933513,space,0.427488626985,space,0.159683210892,space,0.328792637389,space,0.367324055042,space,0.329992359402,j,1,2.13982575337,SPR,24,B,,f,59.8976172448,001,2017_01_13_1733,
每個人都應該要遵守交通規則,交通規則要遵守?,交通,遵守,規則,每個人,要,f,都應該,13,3,63,0,13,13,22,space,0.35064993205,space,0.344392028172,space,0.224773763926,space,0.217395158033,space,0.246314978547,space,0.226957179868,space,0.277329279968,f,1,1.91888971781,SPR,24,B,,f,59.8976172448,001,2017_01_13_1733,
律師帮助上尉惹怒的服務員,律師無視服務員？,的,惹怒,服務員,律師,上尉,j,幫助,12,2,30,0,14,14,5,space,0.267318977334,space,0.208691239386,space,0.34747861576,space,0.240387576618,space,0.263301275656,space,0.334084874703,space,0.272549320653,j,1,0.93241926514,SPR,24,B,,f,59.8976172448,001,2017_01_13_1733,
大叔喜歡孩子親近的阿姨,大叔喜歡阿姨？,的,親近,阿姨,大叔,孩子,f,喜歡,11,2,27,0,15,15,2,space,0.267248370103,space,0.209162655316,space,0.280270446732,space,0.245697240389,space,0.266824125807,space,0.383835030269,space,0.399823211512,f,1,2.49032635863,SPR,24,B,,f,59.8976172448,001,2017_01_13_1733,
外婆感激叔叔協助的警察,外婆感激警察？,的,協助,警察,外婆,叔叔,f,感激,11,2,31,0,16,16,6,space,0.300605930228,space,0.279371181023,space,0.189051612688,space,0.249766620575,space,0.249849846965,space,0.300607132056,space,0.292586150579,f,1,2.6793106691,SPR,24,B,,f,59.8976172448,001,2017_01_13_1733,
助手賄賂小吳批評的評論家,助手賄賂評論家？,的,批評,評論家,助手,小吳,f,賄賂,12,2,29,0,17,17,4,space,0.217379834765,space,0.248591235504,space,0.225097956267,space,0.242080948345,space,0.432514660017,space,0.35058713668,space,0.723850912385,f,1,1.00723198321,SPR,24,B,,f,59.8976172448,001,2017_01_13_1733,
隔壁的大伯擅長修理各種電器,大伯不會修電器?,各種,修理,電器,隔壁的,擅長,j,大伯,13,3,64,0,18,18,23,space,0.234178947576,space,0.20406901963,space,0.19599635966,space,0.226932241989,space,0.242686067329,space,0.243877977482,space,0.276935682225,f,0,0.898947531619,SPR,24,B,,f,59.8976172448,001,2017_01_13_1733,
海關扣留侮辱空服員的旅客,海關扣留空服員？,的,空服員,旅客,海關,侮辱,j,扣留,12,1,58,0,19,19,9,space,0.267285025766,space,0.331504555972,space,0.261133783875,space,0.259500503409,space,0.214500561997,space,0.250634338372,space,0.382746777541,j,1,1.55440677758,SPR,24,B,,f,59.8976172448,001,2017_01_13_1733,
鄰居尊敬市民信任的委員,委員尊敬鄰居？,的,信任,委員,鄰居,市民,j,尊敬,11,2,28,0,20,20,3,space,0.250570641641,space,0.248974617745,space,0.222072361299,space,0.210034279065,space,0.242375695976,space,0.233793762585,space,0.841899893363,j,1,1.22400159121,SPR,24,B,,f,59.8976172448,001,2017_01_13_1733,
導演無視撞見業務員的藝人,藝人撞見業務員？,的,業務員,藝人,導演,撞見,f,無視,12,1,63,0,21,21,14,space,0.233974336821,space,0.214805825613,space,0.246450183884,space,0.308583645994,space,0.228076379601,space,0.333416659894,space,0.609878522504,f,1,2.06578851301,SPR,24,B,,f,59.8976172448,001,2017_01_13_1733,
法官偏袒詆毀代理商的律師,律師詆毀代理商？,的,代理商,律師,法官,詆毀,f,偏袒,12,1,61,0,22,22,12,space,0.217237118006,space,0.192876721878,space,0.205845317279,space,0.260210181208,space,0.226942157053,space,0.249760911887,space,0.266227119122,j,0,1.9361449233,SPR,24,B,,f,59.8976172448,001,2017_01_13_1733,
群眾反感討好主播的發言人,群眾反感發言人？,的,主播,發言人,群眾,討好,f,反感,12,1,57,0,23,23,8,space,0.733850999517,space,0.511440624876,space,0.49605606035,space,0.630171942132,space,0.641743115266,space,0.417065196918,space,0.622907810088,f,1,6.28665995046,SPR,24,B,,f,59.8976172448,001,2017_01_13_1733,
手機是個既方便又重要的發明,手機讓人不方便?,的,又重要,發明,手機,既方便,j,是個,13,3,36,0,0,0,19,space,0.662025117548,space,0.46222107514,space,0.713989035154,space,0.535903777054,space,0.421430226081,space,0.367142879899,space,0.363177758074,j,1,1.00150258197,SPR,24,B,,f,59.8976172448,001,2017_01_13_1733,
小李暗戀招待船長的賓客,賓客招待過船長？,的,船長,賓客,小李,招待,f,暗戀,11,1,37,0,1,1,12,space,0.400636847189,space,0.391115386941,space,0.312495587044,space,0.309935398895,space,0.309786973477,space,0.43397127217,space,0.408967599084,f,1,5.32590194728,SPR,24,B,,f,59.8976172448,001,2017_01_13_1733,
外婆檢舉救治嬸嬸的鄰居,鄰居沒救嬸嬸？,的,嬸嬸,鄰居,外婆,救治,j,檢舉,11,1,38,0,2,2,13,space,0.367240227744,space,0.347059779684,space,0.264060528731,space,0.242158466062,space,0.244690411331,space,0.31732241757,space,0.916269137946,j,1,2.05471790007,SPR,24,B,,f,59.8976172448,001,2017_01_13_1733,
敵人搜查掩護戰士的村民,村民沒掩護戰士？,的,戰士,村民,敵人,掩護,j,搜查,11,1,40,0,3,3,15,space,0.283914981686,space,0.225895066833,space,0.480886622507,space,0.376377404362,space,0.479204668125,space,1.01735465652,space,0.823766454108,j,1,1.39708845824,SPR,24,B,,f,59.8976172448,001,2017_01_13_1733,
老師調查弟弟傷害的同學,同學調查老師？,的,傷害,同學,老師,弟弟,j,調查,11,2,4,0,4,4,3,space,0.483894791018,space,0.480726779759,space,0.408761486062,space,0.334067748685,space,0.375506982455,space,0.450686858123,space,0.780032335111,j,1,3.0687933765,SPR,24,B,,f,59.8976172448,001,2017_01_13_1733,
小劉愛慕領隊欽佩的組長,小劉討厭組長？,的,欽佩,組長,小劉,領隊,j,愛慕,11,2,6,0,5,5,5,space,0.36726666789,space,0.374661798865,space,0.328337746541,space,0.309835046486,space,0.463240222933,space,0.500564106711,space,2.45992859355,j,1,3.05042347814,SPR,24,B,,f,59.8976172448,001,2017_01_13_1733,
小紅取笑小張崇拜的作家,小紅取笑作家？,的,崇拜,作家,小紅,小張,f,取笑,11,2,1,0,6,6,0,space,0.53367198765,space,0.746854447847,space,0.530970885491,space,0.379580569002,space,0.620913681603,space,0.467336343703,space,1.83083228499,f,1,1.63192179964,SPR,24,B,,f,59.8976172448,001,2017_01_13_1733,
村民援助小潘舉薦的水手,村民援助水手？,的,舉薦,水手,村民,小潘,f,援助,11,2,7,0,7,7,6,space,0.317255415794,space,0.315172652699,space,0.343939841434,space,0.346927278457,space,0.348317189317,space,0.350506614399,space,0.397487464201,f,1,2.15354158361,SPR,24,B,,f,59.8976172448,001,2017_01_13_1733,
商人質疑賄賂小陳的企劃員,商人質疑小陳？,的,小陳,企劃員,商人,賄賂,j,質疑,12,1,36,0,8,8,11,space,0.267159134572,space,0.30841268634,space,0.294805621306,space,0.267489035599,space,0.308339675466,space,0.78356359803,space,1.33823688034,f,0,1.16540690347,SPR,24,B,,f,59.8976172448,001,2017_01_13_1733,
留學的生活能夠磨礪人的意志,留學能鍛鍊人?,人的,磨礪,意志,留學的,能夠,f,生活,13,3,37,0,9,9,20,space,0.583975884161,space,0.44370605638,space,0.27952411327,space,0.27482377486,space,0.244708138242,space,0.333807253075,space,0.276468773125,f,1,1.412399411,SPR,24,B,,f,59.8976172448,001,2017_01_13_1733,
王董賞識工人表揚的廠長,王董賞識廠長？,的,表揚,廠長,王董,工人,f,賞識,11,2,3,0,10,10,2,space,0.317226271538,space,0.494506006275,space,0.275101997395,space,0.296375505481,space,0.255960527255,space,0.283693244928,space,0.629855561652,j,0,2.05383726265,SPR,24,B,,f,59.8976172448,001,2017_01_13_1733,
粉絲大罵小周羞辱的導演,粉絲大罵導演？,的,羞辱,導演,粉絲,小周,f,大罵,11,2,5,0,11,11,4,space,0.633805360208,space,0.474534074907,space,0.714171712578,space,0.592007081155,space,0.58148059457,space,0.500117027725,space,0.814597729564,f,1,5.45727947033,SPR,24,B,,f,59.8976172448,001,2017_01_13_1733,
名嘴毀謗徐總賞識的詩人,名嘴稱讚詩人？,的,賞識,詩人,名嘴,徐總,j,毀謗,11,2,8,0,12,12,7,space,0.367254349185,space,0.595815364795,space,0.342701961476,space,0.772898601106,space,0.631249378421,space,0.500533460174,space,1.14767427293,j,1,2.55811711245,SPR,24,B,,f,59.8976172448,001,2017_01_13_1733,
爺爺一句話就把大家逗開心了,爺爺逗大家開心?,逗,大家,開心了,爺爺,就把,f,一句話,12,3,33,0,13,13,16,space,0.433864610182,space,0.362415800875,space,0.342046966733,space,0.313198955249,space,0.39943562288,space,0.330374239347,space,0.33096553736,f,1,1.30631520088,SPR,24,B,,f,59.8976172448,001,2017_01_13_1733,
每年都會頒布新的法規制度,年年都沒新制度?,法規,的,制度,每年,新,j,都會頒布,12,3,34,0,14,14,17,space,0.43388624303,space,0.363778069761,space,0.280200139954,space,0.283304154029,space,0.383195659248,space,0.298101626948,space,0.460094445429,j,1,1.10350659546,SPR,24,B,,f,59.8976172448,001,2017_01_13_1733,
善待動物們是對生命的尊重,應該善待動物?,的,生命,尊重,善待,是對,f,動物們,12,3,35,0,15,15,18,space,0.267351426606,space,0.276971736967,space,0.262136106117,space,0.258257816138,space,0.225712088955,space,0.367810193333,space,0.299942222264,f,1,1.04884998848,SPR,24,B,,f,59.8976172448,001,2017_01_13_1733,
校長相信房東厭惡的小孩,小孩相信校長？,的,厭惡,小孩,校長,房東,j,相信,11,2,2,0,16,16,1,space,0.283510567489,space,0.299962953737,space,0.297927061823,space,0.263567479939,space,0.225475028928,space,0.750507996505,space,2.09640200573,j,1,0.905432580461,SPR,24,B,,f,59.8976172448,001,2017_01_13_1733,
和朋友們一起喝下午茶很開心,喝下午茶很開心?,下午茶,喝,很開心,和,一起,f,朋友們,13,3,39,0,17,17,22,space,0.817369138516,space,1.08359084942,space,0.481891949312,space,0.307471657216,space,0.245676809369,space,0.471151237391,space,0.375901481588,f,1,0.869478476961,SPR,24,B,,f,59.8976172448,001,2017_01_13_1733,
助教嫌棄愛慕局長的學生,助教嫌棄學生？,的,局長,學生,助教,愛慕,f,嫌棄,11,1,33,0,18,18,8,space,0.300574382316,space,0.280095881622,space,0.275866959157,space,0.282799687891,space,0.222700314975,space,0.300168465852,space,0.29641997302,f,1,4.80397930337,SPR,24,B,,f,59.8976172448,001,2017_01_13_1733,
證人揭發指使搶匪的殺手,證人揭發殺手？,的,搶匪,殺手,證人,指使,f,揭發,11,1,35,0,19,19,10,space,0.467089068159,space,0.3598901652,space,0.258029469362,space,0.312287070381,space,0.309606399242,space,0.417124687272,space,0.978921488058,f,1,2.98602848145,SPR,24,B,,f,59.8976172448,001,2017_01_13_1733,
阿姨親手製作了一個生日蛋糕,阿姨沒做蛋糕?,生日,一個,蛋糕,阿姨,製作了,j,親手,13,3,38,0,20,20,21,space,0.317187512686,space,0.349720921164,space,0.247305282537,space,0.243557090158,space,0.249301514195,space,0.212158505121,space,0.293763939291,j,1,0.984877132898,SPR,24,B,,f,59.8976172448,001,2017_01_13_1733,
村民擔心襲擊刺客的鐵匠,鐵匠襲擊了刺客？,的,刺客,鐵匠,村民,襲擊,f,擔心,11,1,39,0,21,21,14,space,0.283942022739,space,0.281160097846,space,0.290678553516,space,0.225544133878,space,0.209108573181,space,0.850382375706,space,0.508446878288,j,0,2.00270230399,SPR,24,B,,f,59.8976172448,001,2017_01_13_1733,
聽說吃黑巧克力可以提高智商,吃巧克力沒有益處?,提高,可以,智商,聽說,黑巧克力,j,吃,13,3,40,0,22,22,23,space,1.01712630973,space,0.45794768515,space,0.483062226602,space,0.334863056531,space,0.350928455038,space,0.429966490105,space,0.277144198903,j,1,0.998972739893,SPR,24,B,,f,59.8976172448,001,2017_01_13_1733,
強盜綁架誣陷主人的管家,強盜綁架主人？,的,主人,管家,強盜,誣陷,j,綁架,11,1,34,0,23,23,9,space,0.500549083896,space,0.292138170247,space,0.340611686974,space,0.309593479615,space,0.299021624145,space,0.517322958374,space,0.463090595687,j,1,1.06490006373,SPR,24,B,,f,59.8976172448,001,2017_01_13_1733,
舅舅斥責讚賞女婿的工程師,工程師讚賞女婿？,的,女婿,工程師,舅舅,讚賞,f,斥責,12,1,47,0,0,0,14,space,0.483332336808,space,0.344142048532,space,0.281011672429,space,0.52990546744,space,0.440859533366,space,0.333924731502,space,0.355291981934,j,0,1.07521382724,SPR,24,B,,f,59.8976172448,001,2017_01_13_1733,
王總讚賞隊員維護的教練,王總讚賞教練？,的,維護,教練,王總,隊員,f,讚賞,11,2,15,0,1,1,6,space,0.300617047105,space,0.331035844138,space,0.331450774291,space,0.38505277966,space,0.408292173321,space,0.383880699606,space,2.87435247911,f,1,1.50189182311,SPR,24,B,,f,59.8976172448,001,2017_01_13_1733,
局長辭退害怕老闆的藥劑師,局長辭退藥劑師？,的,老闆,藥劑師,局長,害怕,f,辭退,12,1,43,0,2,2,10,space,0.450602429919,space,0.36498920912,space,0.374189481576,space,0.326484532052,space,0.349229374653,space,0.58394403581,space,0.60352837856,f,1,1.16733973887,SPR,24,B,,f,59.8976172448,001,2017_01_13_1733,
攝影師誣陷張三認識的司機,攝影師誣陷司機？,的,認識,司機,攝影師,張三,f,誣陷,12,2,9,0,3,3,0,space,0.267259787448,space,0.290809852915,space,0.349728432571,space,0.342096241569,space,0.334100197972,space,0.350563400629,space,0.714146774713,f,1,1.79977021103,SPR,24,B,,f,59.8976172448,001,2017_01_13_1733,
飛上太空是許多人心中的夢想,飛上太空是夢想?,的,心中,夢想,飛上太空,許多人,f,是,13,3,43,0,4,4,18,space,0.850513074198,space,0.423211331057,space,0.517377340962,space,0.59673235743,space,0.646779063361,space,0.417296548258,space,0.455085838868,f,1,1.18236676039,SPR,24,B,,f,59.8976172448,001,2017_01_13_1733,
爺爺羨慕總統拜訪的老人,爺爺羨慕老人？,的,拜訪,老人,爺爺,總統,f,羨慕,11,2,11,0,5,5,2,space,0.33384541102,space,0.633127530775,space,0.393212571929,space,0.363199090469,space,0.398782731325,space,0.350184525247,space,0.467050609761,f,1,0.753241547951,SPR,24,B,,f,59.8976172448,001,2017_01_13_1733,
記者打壓王總邀請的政客,記者打壓政客？,的,邀請,政客,記者,王總,f,打壓,11,2,13,0,6,6,4,space,0.300547641702,space,0.225116284098,space,0.209798420867,space,0.450693167717,space,0.309648162671,space,0.383839537099,space,0.431152691584,f,1,0.872624254465,SPR,24,B,,f,59.8976172448,001,2017_01_13_1733,
小林懷疑攔住廣播員的大叔,大叔沒攔廣播員？,的,廣播員,大叔,小林,攔住,j,懷疑,12,1,46,0,7,7,13,space,0.433880233904,space,0.480035429806,space,0.24062193252,space,0.265892410796,space,0.437657871007,space,0.383924566238,space,0.430187625941,j,1,2.06704832629,SPR,24,B,,f,59.8976172448,001,2017_01_13_1733,
她的書架上擺放了一大堆的書,書架上沒有書?,的,一大堆,書,她的,擺放了,j,書架上,13,3,42,0,8,8,17,space,0.367228509946,space,0.39259423285,space,0.272077904709,space,0.329999870795,space,0.283447772134,space,0.317174593045,space,0.283857294082,j,1,1.13053864904,SPR,24,B,,f,59.8976172448,001,2017_01_13_1733,
旅客結識佩服科學家的商人,商人佩服科學家？,的,科學家,商人,旅客,佩服,f,結識,12,1,45,0,9,9,12,space,0.417338011233,space,0.279842296484,space,0.296492983893,space,0.249873282562,space,0.297409976527,space,0.417017424363,space,1.13019733068,j,0,1.13124412045,SPR,24,B,,f,59.8976172448,001,2017_01_13_1733,
明星資助尊敬在地人的導遊,明星資助在地人？,的,在地人,導遊,明星,尊敬,j,資助,12,1,44,0,10,10,11,space,0.683765534719,space,0.84754065999,space,0.696179187333,space,0.682890305514,space,0.388093998365,space,0.450442286703,space,1.0153298815,j,1,4.05077050516,SPR,24,B,,f,59.8976172448,001,2017_01_13_1733,
老師今天分配了很多重要的任務,老師分配了任務?,的,很多重要,任務,老師,分配了,f,今天,11,3,45,0,11,11,20,space,0.417312171994,space,0.38070067011,space,0.372003661963,space,0.337442173433,space,0.24753873708,space,0.300378785265,space,0.446731050441,f,1,0.910141031185,SPR,24,B,,f,59.8976172448,001,2017_01_13_1733,
姐姐想要羨慕舞者的造型師,造型師討厭舞者？,的,舞者,造型師,姐姐,羨慕,j,想要,12,1,48,0,12,12,15,space,0.417131898212,space,0.50074408004,space,0.664186900642,space,0.364702874256,space,0.328181809717,space,0.367166015028,space,0.715373838248,j,1,3.28545331796,SPR,24,B,,f,59.8976172448,001,2017_01_13_1733,
院長刁難醫生厭煩的病人,病人刁難院長？,的,厭煩,病人,院長,醫生,j,刁難,11,2,10,0,13,13,1,space,0.400036835941,space,0.464116053059,space,0.50659246197,space,0.314119553368,space,0.27463959514,space,0.467241699967,space,0.409336559431,j,1,2.67200687683,SPR,24,B,,f,59.8976172448,001,2017_01_13_1733,
教授同情群眾欺瞞的主席,教授批評主席？,的,欺瞞,主席,教授,群眾,j,同情,11,2,16,0,14,14,7,space,0.75047434539,space,0.565454856289,space,0.316761766095,space,0.317670946868,space,0.264333943953,space,0.266782362363,space,0.330714656346,f,0,1.67031350512,SPR,24,B,,f,59.8976172448,001,2017_01_13_1733,
心理師理解關心小金的助教,心理師理解助教？,的,小金,助教,心理師,關心,f,理解,12,1,41,0,15,15,8,space,0.350637913798,space,0.47625659089,space,0.243276463967,space,0.279612447412,space,0.264872061191,space,0.233756506015,space,0.314679303454,f,1,1.91922833207,SPR,24,B,,f,59.8976172448,001,2017_01_13_1733,
小朋友需要父母的關愛和鼓勵,小朋友不需要鼓勵？,關愛和,的,鼓勵,小朋友,父母,j,需要,13,3,48,0,16,16,23,space,0.283794198243,space,0.24580240011,space,0.247460017519,space,0.232079358932,space,0.216938163983,space,0.246599811129,space,0.299064288934,j,1,0.840129003918,SPR,24,B,,f,59.8976172448,001,2017_01_13_1733,
姐姐非常喜歡吃抹茶霜淇淋,姐姐討厭霜淇淋?,抹茶,吃,霜淇淋,姐姐,喜歡,j,非常,12,3,46,0,17,17,21,space,0.283994302154,space,0.266592774438,space,0.244369523993,space,0.215956573244,space,0.217347085025,space,0.310502960841,space,0.421320259076,j,1,0.709581942094,SPR,24,B,,f,59.8976172448,001,2017_01_13_1733,
小郭嘲笑哥哥嫉妒的富商,小郭欣賞富商？,的,嫉妒,富商,小郭,哥哥,j,嘲笑,11,2,14,0,18,18,5,space,1.15035103812,space,0.314658872434,space,0.250556219718,space,0.23386376891,space,0.20793048403,space,0.200587331987,space,0.325111146289,j,1,3.51474143782,SPR,24,B,,f,59.8976172448,001,2017_01_13_1733,
警察逮捕唆使兇嫌的槍手,警察逮捕兇嫌？,的,兇嫌,槍手,警察,唆使,j,逮捕,11,1,42,0,19,19,9,space,0.250667388551,space,0.280302896004,space,0.195657444972,space,0.231070426657,space,0.224776768489,space,0.233849647455,space,0.244742390278,f,0,0.820803053604,SPR,24,B,,f,59.8976172448,001,2017_01_13_1733,
大學部設置了許多不同的課程,大學課程有很多?,教學,的,課程,大學部,許多不同,f,設置了,13,3,47,0,20,20,22,space,0.300437674698,space,0.48786291742,space,0.257107068508,space,0.325341596283,space,0.300227956206,space,0.267288631236,space,0.364869026584,f,1,1.82484899816,SPR,24,B,,f,59.8976172448,001,2017_01_13_1733,
叔叔推薦小王欣賞的村長,村長推薦叔叔？,的,欣賞,村長,叔叔,小王,j,推薦,11,2,12,0,21,21,3,space,0.317206140957,space,0.316681844721,space,0.26624875197,space,0.24794074762,space,0.264782825674,space,0.383936584491,space,0.348189795841,j,1,2.22366147468,SPR,24,B,,f,59.8976172448,001,2017_01_13_1733,
學校的操場上聚集了很多學生,操場上沒有學生?,很多,聚集了,學生,學校,操場上,j,的,13,3,44,0,22,22,19,space,0.400497435461,space,0.295550452473,space,0.266852969609,space,0.320014506025,space,0.49573907895,space,0.334092987017,space,0.380746940384,j,1,2.25244999581,SPR,24,B,,f,59.8976172448,001,2017_01_13_1733,
今年新出了很多部好看的美劇,今年有很多美劇?,的,好看,美劇,今年,很多部,f,新出了,13,3,41,0,23,23,16,space,0.367257954655,space,0.262323290372,space,1.00425746581,space,0.362217499729,space,0.348897670905,space,0.350477770582,space,0.363480918473,f,1,2.9399039321,SPR,24,B,,f,59.8976172448,001,2017_01_13_1733,
