Sentences,Question,word5,word4,word6,word1,word3,Ans,word2,lenth,Type,ID,practicetrials.thisRepN,practicetrials.thisTrialN,practicetrials.thisN,practicetrials.thisIndex,key_resp_12.keys,key_resp_12.rt,Atests1.keys,Atests1.rt,Atests2.keys,Atests2.rt,Atests3.keys,Atests3.rt,Atests4.keys,Atests4.rt,Atests5.keys,Atests5.rt,Atests6.keys,Atests6.rt,key_resp_8.keys,key_resp_8.corr,key_resp_8.rt,expName,participant,version,Grade,Gender,frameRate,session,date,
海關扣留空服員侮辱的旅客,海關扣留空服員？,的,侮辱,旅客,海關,空服員,j,扣留,12,2,58,0,0,0,9,space,0.923559195519,space,1.23463433331,space,1.0437521883,space,0.840263065756,space,2.33383622298,space,2.51709291893,space,1.10897073806,j,1,3.04043169563,SPR,37,A,,f,50.0179470473,001,2017_01_20_0836,
外婆感激協助叔叔的警察,外婆感激警察？,的,叔叔,警察,外婆,協助,f,感激,11,1,31,0,1,1,6,space,0.760618214789,space,0.995625570636,space,0.873717068919,space,1.18390721568,space,1.52056025222,space,0.75045581775,space,1.60042575884,f,1,1.50008822279,SPR,37,A,,f,50.0179470473,001,2017_01_20_0836,
導演無視業務員撞見的藝人,業務員撞見藝人？,的,撞見,藝人,導演,業務員,f,無視,12,2,63,0,2,2,14,space,0.55994985314,space,2.53043528375,space,0.95036195028,space,1.57664271033,space,2.69691978121,space,0.650480646446,space,1.38379203263,f,1,2.46704750491,SPR,37,A,,f,50.0179470473,001,2017_01_20_0836,
助手賄賂批評小吳的評論家,助手賄賂評論家？,的,小吳,評論家,助手,批評,f,賄賂,12,1,29,0,3,3,4,space,0.584782496283,space,1.59695803082,space,1.56403731173,space,1.27048002277,space,1.52766781179,space,0.773826370443,space,2.26040209856,f,1,2.45028438528,SPR,37,A,,f,50.0179470473,001,2017_01_20_0836,
鄰居尊敬信任市民的委員,委員尊敬鄰居？,的,市民,委員,鄰居,信任,j,尊敬,11,1,28,0,4,4,3,space,0.577047311494,space,1.29556292653,space,1.58379882204,space,2.96035855953,space,1.65458428908,space,0.883858150385,space,0.817102510935,j,1,3.87152274905,SPR,37,A,,f,50.0179470473,001,2017_01_20_0836,
群眾反感主播討好的發言人,群眾反感發言人？,的,討好,發言人,群眾,主播,f,反感,12,2,57,0,5,5,8,space,0.450413462916,space,0.677054456159,space,1.50133557857,space,1.77708331113,space,0.66696982149,space,0.537374292392,space,0.670622679218,f,1,2.90819698274,SPR,37,A,,f,50.0179470473,001,2017_01_20_0836,
政府豁免檢舉犯人的同伴,同伴豁免政府？,的,犯人,同伴,政府,檢舉,j,豁免,11,1,26,0,6,6,1,space,0.383768348663,space,0.592262683654,space,0.733814275829,space,0.616798882432,space,2.98030875213,space,0.400390153942,space,1.01706548499,j,1,2.34221205917,SPR,37,A,,f,50.0179470473,001,2017_01_20_0836,
大叔喜歡親近孩子的阿姨,大叔喜歡阿姨？,的,孩子,阿姨,大叔,親近,f,喜歡,11,1,27,0,7,7,2,space,0.392045896377,space,0.433420214032,space,1.84065345654,space,1.04384573998,space,0.650382357968,space,0.483682731109,space,1.1580044518,f,1,1.44058343093,SPR,37,A,,f,50.0179470473,001,2017_01_20_0836,
小明認識大姑姑捧紅的明星,小明認識大姑姑？,的,捧紅,明星,小明,大姑姑,j,認識,12,2,60,0,8,8,11,space,0.533869064747,space,1.49377565517,space,3.26707900459,space,0.680012584083,space,1.4170826164,space,0.800455442754,space,1.47025707766,j,1,5.11135413496,SPR,37,A,,f,50.0179470473,001,2017_01_20_0836,
教授排斥小林支持的研究員,小林不支持研究員？,的,支持,研究員,教授,小林,j,排斥,12,2,64,0,9,9,15,space,0.450398463068,space,0.566807546818,space,1.21725464097,space,0.560495373928,space,0.67698379898,space,0.500470718915,space,0.950406555091,j,1,2.83370655324,SPR,37,A,,f,50.0179470473,001,2017_01_20_0836,
朋友毆打碰見駕駛員的盜賊,朋友幫助盜賊？,的,駕駛員,盜賊,朋友,碰見,j,毆打,12,1,32,0,10,10,7,space,0.400472653106,space,0.370594929499,space,0.660369888358,space,0.833706158503,space,1.75042068653,space,0.400390153942,space,0.89241082689,j,1,3.68383438747,SPR,37,A,,f,50.0179470473,001,2017_01_20_0836,
店長錯怪熟悉顧客的職工,店長錯怪職工？,的,顧客,職工,店長,熟悉,f,錯怪,11,1,25,0,11,11,0,space,0.383733612173,space,0.483472733237,space,1.18381090086,space,1.58344435195,space,0.702475251238,space,0.567125701489,space,0.890594661081,f,1,1.70392313131,SPR,37,A,,f,50.0179470473,001,2017_01_20_0836,
參加國際會議是令人高興的事,參會不值得高興？,的,令人高興,事,參加,是,j,國際會議,13,3,28,0,12,12,19,space,0.452297128042,space,2.53048620428,space,0.74387562126,space,1.12344559141,space,1.62490472136,space,0.436990967328,space,0.567160043247,j,1,2.91557138171,SPR,37,A,,f,50.0179470473,001,2017_01_20_0836,
今天爸爸買了一籃新鮮的水果,爸爸買了水果？,的,新鮮,各種水果,今天,買了,f,爸爸,13,3,27,0,13,13,18,space,0.450340042607,space,2.62156528151,space,1.17335166473,space,0.666924427213,space,0.643780056439,space,0.976992996255,space,0.703901026266,f,1,1.28444567075,SPR,37,A,,f,50.0179470473,001,2017_01_20_0836,
他一邊寫作業一邊看著電視,他沒在看電視？,看著,一邊,電視,他,寫作業,j,一邊,12,3,26,0,14,14,17,space,0.510391539454,space,1.02721761898,space,0.783434167838,space,0.814824112966,space,1.87698979892,space,2.19327659443,space,0.582393178385,j,1,2.36370881506,SPR,37,A,,f,50.0179470473,001,2017_01_20_0836,
上司懲罰小明責罵的管理員,上司懲罰管理員？,的,責罵,管理員,上司,小明,f,懲罰,12,2,59,0,15,15,10,space,0.433533502358,space,1.78018591127,space,1.81037823696,space,0.920695803477,space,1.32061859373,space,1.80399106483,space,0.967099412282,f,1,3.7354184701,SPR,37,A,,f,50.0179470473,001,2017_01_20_0836,
家長們準備了豐盛的晚餐,晚餐沒有東西吃？,的,豐盛,晚餐,家長們,了,j,準備,11,3,32,0,16,16,23,space,0.400402785393,space,0.650454988811,space,0.450416226046,space,0.570642376386,space,0.71927942309,space,1.31716349716,space,0.433398108993,j,1,2.46112730174,SPR,37,A,,f,50.0179470473,001,2017_01_20_0836,
聖誕節是個令人快樂的節日,聖誕節讓人快樂？,的,快樂,節日,聖誕節,令人,f,是個,12,3,25,0,17,17,16,space,0.43378652611,space,0.873363783025,space,0.58728707617,space,0.450433199558,space,0.58382132181,space,0.409111776104,space,0.583741585776,f,1,0.857149736772,SPR,37,A,,f,50.0179470473,001,2017_01_20_0836,
鄉村的風景迷人且空氣新鮮,鄉村的風景很好？,空氣,且,新鮮,鄉村的,迷人,f,風景,12,3,29,0,18,18,20,space,0.350494738409,space,0.650411568199,space,0.483732072714,space,0.448662428025,space,0.460479545141,space,0.633804368035,space,0.523885481687,f,1,1.45730115629,SPR,37,A,,f,50.0179470473,001,2017_01_20_0836,
法官偏袒代理商詆毀的律師,代理商詆毀律師？,的,詆毀,律師,法官,代理商,f,偏袒,12,2,61,0,19,19,12,space,0.317147707845,space,0.372451752792,space,0.637105124067,space,0.650406436672,space,1.81386846475,space,0.490236085766,space,0.895817371324,f,1,1.92726534218,SPR,37,A,,f,50.0179470473,001,2017_01_20_0836,
律師帮助惹怒上尉的服務員,律師無視服務員？,的,上尉,服務員,律師,惹怒,j,幫助,12,1,30,0,20,20,5,space,0.393358777812,space,0.953932308843,space,0.951378782083,space,1.69736661879,space,1.28369015209,space,0.527052423285,space,0.633521344586,j,1,3.36667167977,SPR,37,A,,f,50.0179470473,001,2017_01_20_0836,
弟弟花光了所有的零花錢,弟弟還有零花錢？,的,所有,零花錢,弟弟,光了,j,花,11,3,30,0,21,21,21,space,0.367152464376,space,0.629559411042,space,0.833467739866,space,0.717207075665,space,0.517053840375,space,0.700068565095,space,0.73716911026,j,1,1.34458045622,SPR,37,A,,f,50.0179470473,001,2017_01_20_0836,
警衛攔住治療師責備的婦女,治療師沒責備婦女？,的,責備,婦女,警衛,治療師,j,攔住,12,2,62,0,22,22,13,space,0.383753348814,space,0.617078748018,space,0.700414351065,space,0.687159616935,space,1.31702652486,space,0.416987880517,space,0.516986735792,j,1,2.03563529685,SPR,37,A,,f,50.0179470473,001,2017_01_20_0836,
孩子們快樂地享受著陽光,孩子們喜歡陽光？,著,享受,陽光,孩子們,的,f,快樂,11,3,31,0,23,23,22,space,0.367105096435,space,0.550429686436,space,1.13346391096,space,0.707187177182,space,0.483590363624,space,2.475724917,space,0.350448554666,f,1,1.53352288404,SPR,37,A,,f,50.0179470473,001,2017_01_20_0836,
阿姨看見交警驅趕的行政人員,交警驅趕行政人員？,的,驅趕,行政人員,阿姨,交警,f,看見,13,2,53,0,0,0,12,space,0.768281163467,space,1.71710562932,space,0.783902715722,space,1.5838055325,space,2.49031424287,space,1.10020609002,space,0.573945106083,f,1,1.13986845133,SPR,37,A,,f,50.0179470473,001,2017_01_20_0836,
夏天是個非常美麗的季節,夏天是個好季節？,的,美麗,季節,夏天,非常,f,是個,11,3,23,0,1,1,22,space,1.01712587912,space,0.97405421024,space,0.450431225894,space,0.433703632213,space,0.450400042,space,0.481456043143,space,0.600408390599,f,1,0.807242084521,SPR,37,A,,f,50.0179470473,001,2017_01_20_0836,
刑警緝拿政府輕視的逃亡者,政府重視逃亡者？,的,輕視,逃亡者,刑警,政府,j,緝拿,12,2,56,0,2,2,15,space,0.383818874467,space,1.35050263307,space,0.800401759087,space,0.940375209357,space,1.45706392185,space,0.417104326706,space,0.533683540312,j,1,2.40040673272,SPR,37,A,,f,50.0179470473,001,2017_01_20_0836,
治療師開導小崔照顧的飛行員,治療師開導飛行員？,的,照顧,飛行員,治療師,小崔,f,開導,13,2,49,0,3,3,8,space,0.350484080622,space,1.54668090863,space,0.600406811668,space,0.950369055472,space,0.800331496641,space,0.450355831921,space,1.12057114684,f,1,1.49136817956,SPR,37,A,,f,50.0179470473,001,2017_01_20_0836,
科學家協助熟識表姐的院士,科學家排斥院士？,的,表姐,院士,科學家 ,熟識,j,協助,12,1,24,0,4,4,7,space,0.37351239994,space,0.910519590788,space,0.717113129248,space,1.45911298004,space,0.657204130958,space,0.899953776784,space,0.600283260288,j,1,2.8837645987,SPR,37,A,,f,50.0179470473,001,2017_01_20_0836,
哥哥的體育特長是打羽毛球,哥哥不會打羽毛球？,是,特長,打羽毛球,哥哥,體育,j,的,12,3,18,0,5,5,17,space,0.357264801396,space,0.550609684612,space,0.393721932028,space,0.367027334065,space,0.620456871687,space,0.333705171671,space,0.595415809603,j,1,1.11047309126,SPR,37,A,,f,50.0179470473,001,2017_01_20_0836,
大腦裡的奧秘等著你們去解開,大腦里有奧妙？,你們,等著,去解開,大腦裡,奧秘,f,的,13,3,19,0,6,6,18,space,0.367086149259,space,0.883738546333,space,0.50138097285,space,0.677153534102,space,0.916791500928,space,0.570555535161,space,0.517111866103,f,1,2.88480274608,SPR,37,A,,f,50.0179470473,001,2017_01_20_0836,
外婆批評辱罵農夫的木匠,外婆批評木匠？,的,農夫,木匠,外婆,辱罵,f,批評,11,1,19,0,7,7,2,space,0.417101958309,space,1.27729350637,space,0.883471706932,space,0.500473876778,space,1.60396730191,space,0.90042114047,space,0.567079123014,f,1,1.35232669353,SPR,37,A,,f,50.0179470473,001,2017_01_20_0836,
主任指責嘲笑上司的會計,主任指責會計？,的,上司,會計,主任,嘲笑,f,指責,11,1,23,0,8,8,6,space,0.367186411401,space,1.53365275115,space,0.700477903053,space,0.533706040083,None,,space,0.967083622968,space,0.944755164981,f,1,1.31715481304,SPR,37,A,,f,50.0179470473,001,2017_01_20_0836,
小張欽佩隊長袒護的消防員,校長欽佩隊長？,的,袒護,消防員,小張,隊長,j,欽佩,12,2,52,0,9,9,11,space,0.377025522241,space,0.483791282641,space,0.787323865271,space,0.620565423219,space,0.970605034659,space,0.483654705078,space,1.0171183792,j,1,2.85014362354,SPR,37,A,,f,50.0179470473,001,2017_01_20_0836,
小王關注航海家資助的演員,小王關注演員？,的,資助,演員,小王,航海家,f,關注,12,2,51,0,10,10,10,space,0.367082596663,space,0.64720002179,space,0.600235892347,space,1.46815986206,space,0.550421397047,space,0.783818637627,space,0.512466255276,f,1,1.37810472183,SPR,37,A,,f,50.0179470473,001,2017_01_20_0836,
老闆責罵同情雇主的技工,技工責罵老闆？,的,雇主,技工,老闆,同情,j,責罵,11,1,18,0,11,11,1,space,0.433750210689,space,1.33369767175,space,0.517009235564,space,0.710398328859,space,2.13053696693,space,0.350409081382,space,0.700428561447,j,1,1.7501246369,SPR,37,A,,f,50.0179470473,001,2017_01_20_0836,
如果天氣好的話我就去野餐,天氣好也不野餐？,就,我,去野餐,如果,的話,j,天氣好,12,3,24,0,12,12,23,space,0.333497936929,space,1.57358629393,space,0.526943082287,space,0.393237989562,space,0.453908032774,space,0.383691375758,space,0.508925896409,j,1,3.55700554086,SPR,37,A,,f,50.0179470473,001,2017_01_20_0836,
偵探跟蹤迷戀老婆的編輯,偵探跟蹤編輯？,的,老婆,編輯,偵探,迷戀,f,跟蹤,11,1,17,0,13,13,0,space,0.33377859198,space,0.633478318707,space,0.500375193567,space,2.56712649096,space,0.824004414692,space,1.12557912242,space,0.667105214855,f,1,1.36700759742,SPR,37,A,,f,50.0179470473,001,2017_01_20_0836,
有人明年要在高雄舉辦演唱會,明年有演唱會？,舉辦,高雄,演唱會,有人,要在,f,明年,13,3,17,0,14,14,16,space,0.359065967358,space,0.500419798378,space,0.517364495123,space,0.603439149366,space,0.470390892092,space,0.433998102914,space,0.440480010926,f,1,2.37246162111,SPR,37,A,,f,50.0179470473,001,2017_01_20_0836,
雨後有時會見到漂亮的彩虹,雨後可能現彩虹？,的,漂亮,彩虹,雨後,會見到,f,有時,12,3,21,0,15,15,20,space,0.333822012592,space,0.753928677302,space,0.700402114347,space,0.683729783264,space,0.525405597864,space,0.400431206158,space,0.483747072563,f,1,1.70031053633,SPR,37,A,,f,50.0179470473,001,2017_01_20_0836,
贊助商支持貴族拉攏的青年,貴族排斥青年？,的,拉攏,青年,贊助商,貴族,j,支持,12,2,54,0,16,16,13,space,0.383475851626,space,0.900474429404,space,0.516826474258,space,0.667066925769,space,1.36680273108,space,0.843924607606,space,0.633824894142,j,1,2.15127465156,SPR,37,A,,f,50.0179470473,001,2017_01_20_0836,
許多古生物學家著迷於恐龍,學者討厭恐龍？,於,著迷,恐龍,許多,生物學家,j,古,12,3,22,0,17,17,21,space,0.350405528786,space,0.437211228255,space,1.16924881156,space,1.40047225837,space,0.517040419459,space,1.75044160737,space,0.367172201019,j,1,1.83324313688,SPR,37,A,,f,50.0179470473,001,2017_01_20_0836,
同伴欺負取笑小郭的廚師,同伴關心廚師？,的,小郭,廚師,同伴,取笑,j,欺負,11,1,22,0,18,18,5,space,0.417137878998,space,0.483760493479,space,0.683771230213,space,2.290036272,space,0.800430574585,space,1.01709785309,space,0.447062181081,j,1,1.49199106799,SPR,37,A,,f,50.0179470473,001,2017_01_20_0836,
妹妹的個性一向是冷冰冰的,妹妹個性熱情？,是,一向,冷冰冰的,妹妹,個性,j,的,11,3,20,0,19,19,19,space,0.300390903934,space,1.50690012746,space,0.690159981274,space,1.45045727826,space,0.367059702158,space,0.567201490196,space,0.590452044104,j,1,1.00373456743,SPR,37,A,,f,50.0179470473,001,2017_01_20_0836,
青年佩服小謝督促的技術員,青年佩服小謝？,的,督促,技術員,青年,小謝,j,佩服,12,2,50,0,20,20,9,space,0.350420133901,space,1.01714285263,space,0.767116306848,space,0.833776026217,space,1.38898395372,space,0.40044265341,space,0.930502940957,j,1,3.2306175319,SPR,37,A,,f,50.0179470473,001,2017_01_20_0836,
媽媽討厭小白忽視的企業家,小白忽視企業家？,的,忽視,企業家,媽媽,小白,f,討厭,12,2,55,0,21,21,14,space,0.367130359337,space,0.367152859109,space,0.450129650002,space,0.450438725818,space,1.36706443895,space,0.480334607136,space,1.32482486691,f,1,1.70046132427,SPR,37,A,,f,50.0179470473,001,2017_01_20_0836,
鄰居告發砍傷表弟的疑犯,鄰居告發疑犯？,的,表弟,疑犯,鄰居,砍傷,f,告發,11,1,21,0,22,22,4,space,0.367112991092,space,0.660460282179,space,2.77247954198,space,0.996943583598,space,1.11237530883,space,0.367146148651,space,0.387218708442,f,1,1.42064113298,SPR,37,A,,f,50.0179470473,001,2017_01_20_0836,
妹妹迷戀結識表哥的中醫師,中醫師迷戀妹妹？,的,表哥,中醫師,妹妹,結識,j,迷戀,12,1,20,0,23,23,3,space,0.327206290147,space,0.417081432201,space,0.533779065659,space,1.23380342068,space,1.62701377894,space,0.333786486637,space,0.966810467841,j,1,0.951309309103,SPR,37,A,,f,50.0179470473,001,2017_01_20_0836,
商人質疑小陳賄賂的企劃員,商人質疑小陳？,的,賄賂,企劃員,商人,小陳,j,質疑,12,2,36,0,0,0,11,space,0.640690877211,space,1.31808204048,space,1.46695711109,space,1.38727041844,space,3.20238426532,space,0.41707985327,space,0.517109892439,j,1,1.7671542012,SPR,37,A,,f,50.0179470473,001,2017_01_20_0836,
強盜綁架主人誣陷的管家,強盜綁架主人？,的,誣陷,管家,強盜,主人,j,綁架,11,2,34,0,1,1,9,space,0.400184892864,space,0.937288793259,space,0.440579483603,space,0.383746638357,space,0.970575034964,space,0.420651001299,space,0.567055439044,j,1,1.55236585103,SPR,37,A,,f,50.0179470473,001,2017_01_20_0836,
名嘴毀謗賞識徐總的詩人,名嘴稱讚詩人？,的,徐總,詩人,名嘴,賞識,j,毀謗,11,1,8,0,2,2,7,space,0.32386882396,space,0.583729349058,space,1.6479934348,space,0.417129589608,space,3.49357078882,space,0.367035623455,space,0.481649856968,j,1,1.14370841243,SPR,37,A,,f,50.0179470473,001,2017_01_20_0836,
叔叔有很多棟房子和別墅,叔叔沒有房子？,和,房子,別墅,叔叔,很多棟,j,有,11,3,8,0,3,3,23,space,0.783407326005,space,0.49056292456,space,0.467081451938,space,0.735852281497,space,0.35400233445,space,0.353946677119,space,0.443620900157,j,1,1.90399307796,SPR,37,A,,f,50.0179470473,001,2017_01_20_0836,
外婆檢舉嬸嬸救治的鄰居,嬸嬸沒救鄰居？,的,救治,鄰居,外婆,嬸嬸,j,檢舉,11,2,38,0,4,4,13,space,0.393821009971,space,0.443753925125,space,0.883752756715,space,0.583672902261,space,0.783862452973,space,0.400430416692,space,0.433756526414,j,1,1.60228850313,SPR,37,A,,f,50.0179470473,001,2017_01_20_0836,
究竟存不存在外星人仍是個謎,外星人是個謎？,是個,仍,謎,究竟,外星人,f,存不存在,13,3,3,0,5,5,18,space,0.333847670227,space,0.803911723526,space,0.600585625646,space,0.404063143044,space,0.543618965966,space,0.633824104676,space,0.51700449877,f,1,6.45063490804,SPR,37,A,,f,50.0179470473,001,2017_01_20_0836,
小紅取笑崇拜小張的作家,小紅取笑作家？,的,小張,作家,小紅,崇拜,f,取笑,11,1,1,0,6,6,0,space,0.354613380891,space,1.03062297921,space,0.883801308855,space,0.367082596663,space,1.32008254653,space,0.31059040586,space,0.380314436288,f,1,1.16155270532,SPR,37,A,,f,50.0179470473,001,2017_01_20_0836,
茶餐廳裡有很多好吃的甜點,餐廳裡有甜點？,的,好吃,甜點,茶餐廳裡,很多,f,有,12,3,5,0,7,7,20,space,0.773977553122,space,1.99194587107,space,0.497246146322,space,1.11711170821,space,0.327025107772,space,0.287216300571,space,0.506624603935,f,1,1.7506823944,SPR,37,A,,f,50.0179470473,001,2017_01_20_0836,
老師這次沒有劃考試的重點,老師劃了重點？,的,劃考試,重點,老師,沒有,j,這次,12,3,4,0,8,8,19,space,0.317067577078,space,0.566788599642,space,0.773442295387,space,0.333767934193,space,0.813749255435,space,0.357029935355,space,0.300500244932,j,1,1.53384222291,SPR,37,A,,f,50.0179470473,001,2017_01_20_0836,
校長相信厭惡房東的小孩,小孩相信校長？,的,房東,小孩,校長,厭惡,j,相信,11,1,2,0,9,9,1,space,0.333759644804,space,1.01712311599,space,1.20486634543,space,1.20675987888,space,3.35744716797,space,0.344811374937,space,0.617099668858,j,1,1.10388618431,SPR,37,A,,f,50.0179470473,001,2017_01_20_0836,
助教嫌棄局長愛慕的學生,助教嫌棄學生？,的,愛慕,學生,助教,局長,f,嫌棄,11,2,33,0,10,10,8,space,0.317109024027,space,0.840386222403,space,0.441455790514,space,1.91034353994,space,0.347086615044,space,0.410428604868,space,0.433797973363,f,1,2.14400367259,SPR,37,A,,f,50.0179470473,001,2017_01_20_0836,
小劉愛慕欽佩領隊的組長,小劉討厭組長？,的,領隊,組長,小劉,欽佩,j,愛慕,11,1,6,0,11,11,5,space,0.283723704378,space,0.383794795764,space,0.487307562805,space,0.367021807805,space,3.43727675391,space,0.317113760821,space,0.635562508117,j,1,1.21726174616,SPR,37,A,,f,50.0179470473,001,2017_01_20_0836,
敵人搜查戰士掩護的村民,戰士沒掩護村民？,的,掩護,村民,敵人,戰士,j,搜查,11,2,40,0,12,12,15,space,0.307248597613,space,0.36390104995,space,0.390073416362,space,0.737174241787,space,0.537244030554,space,1.7255197546,space,0.586157350775,j,1,1.6171494052,SPR,37,A,,f,50.0179470473,001,2017_01_20_0836,
老師調查傷害弟弟的同學,同學調查老師？,的,弟弟,同學,老師,傷害,j,調查,11,1,4,0,13,13,3,space,0.367131148803,space,0.550374029105,space,1.53506826312,space,2.13720795197,space,2.91583151065,space,0.343812306112,space,0.357255722541,j,1,0.940554023334,SPR,37,A,,f,50.0179470473,001,2017_01_20_0836,
警察逮捕了正在逃跑的罪犯,罪犯正在逃跑？,的,逃跑,罪犯,警察,正在,f,逮捕了,12,3,1,0,14,14,16,space,0.31712481334,space,0.433774684125,space,0.48358838996,space,0.367092464984,space,0.400431206157,space,0.683759388227,space,0.350440660009,f,1,1.10363671315,SPR,37,A,,f,50.0179470473,001,2017_01_20_0836,
司機們大部分都比較好說話,司機討厭說話？,好,比較,說話,司機們,都,j,大部分,12,3,2,0,15,15,17,space,0.383498351398,space,0.637156044603,space,0.583728954325,space,0.350378686952,space,0.340393130228,space,0.370682954923,space,0.470605626759,j,1,4.74353062476,SPR,37,A,,f,50.0179470473,001,2017_01_20_0836,
公園裡擠滿了玩鬧的小孩,公園裡有小孩？,的,玩鬧,小孩,公園裡,滿了,f,擠,11,3,7,0,16,16,22,space,0.350548422075,space,0.47382427836,space,0.650353147738,space,0.567024649882,space,1.81711553712,space,0.383380721011,space,0.490187138893,f,1,1.00215010979,SPR,37,A,,f,50.0179470473,001,2017_01_20_0836,
粉絲大罵羞辱小周的導演,粉絲大罵導演？,的,小周,導演,粉絲,羞辱,f,大罵,11,1,5,0,17,17,4,space,0.383744269959,space,0.547209850637,space,0.400497126542,space,0.35037276596,space,0.90041561421,space,0.490577529675,space,0.601391275378,f,1,1.03349387118,SPR,37,A,,f,50.0179470473,001,2017_01_20_0836,
證人揭發搶匪指使的殺手,證人揭發殺手？,的,指使,殺手,證人,搶匪,f,揭發,11,2,35,0,18,18,10,space,0.330542572134,space,0.350397239396,space,0.463905036752,space,0.83383760454,space,2.67037518173,space,0.283739888425,space,0.530244233052,f,1,2.58558656708,SPR,37,A,,f,50.0179470473,001,2017_01_20_0836,
傳統小說有很多精華的部分,小說沒有精華？,的,精華,部分,傳統小說,很多 ,j,有 ,12,3,6,0,19,19,21,space,0.343320863723,space,1.11709631363,space,0.317071129674,space,0.370375458038,space,0.353614706798,space,0.333697277015,space,0.400461205853,j,1,2.00728992614,SPR,37,A,,f,50.0179470473,001,2017_01_20_0836,
小李暗戀船長招待的賓客,船長招待過賓客？,的,招待,賓客,小李,船長,f,暗戀,11,2,37,0,20,20,12,space,0.283756072472,space,0.495970764507,space,2.81706737971,space,1.30046906104,space,2.82053629193,space,0.260439598178,space,0.367043123379,f,1,1.96382589282,SPR,37,A,,f,50.0179470473,001,2017_01_20_0836,
王董賞識表揚工人的廠長,王董賞識廠長？,的,工人,廠長,王董,表揚,f,賞識,11,1,3,0,21,21,2,space,0.396671770563,space,0.34036431473,space,0.377315256148,space,1.35490272006,space,0.883724730684,space,0.367115359489,space,0.335798439937,f,1,1.37054006163,SPR,37,A,,f,50.0179470473,001,2017_01_20_0836,
村民擔心刺客襲擊的鐵匠,刺客襲擊了鐵匠？,的,襲擊,鐵匠,村民,刺客,f,擔心,11,2,39,0,22,22,14,space,0.333750171215,space,0.500362562116,space,0.517090155797,space,1.80046333741,space,0.367019439409,space,0.517105550378,space,0.51708226114,f,1,1.27063396858,SPR,37,A,,f,50.0179470473,001,2017_01_20_0836,
村民援助舉薦小潘的水手,村民援助水手？,的,小潘,水手,村民,舉薦,f,援助,11,1,7,0,23,23,6,space,0.267147293376,space,0.350437502146,space,1.90028574711,space,0.357292432695,space,0.746959668961,space,0.360151877408,space,0.360378454061,f,1,1.80250568514,SPR,37,A,,f,50.0179470473,001,2017_01_20_0836,
明星資助在地人尊敬的導遊,明星資助在地人？,的,尊敬,導遊,明星,在地人,j,資助,12,2,44,0,0,0,11,space,0.54370422826,space,1.20033639133,space,0.335581336873,space,0.607137796104,space,0.333720566252,space,0.410368605476,space,0.583685928445,j,1,5.57362418828,SPR,37,A,,f,50.0179470473,001,2017_01_20_0836,
姐姐想要舞者羨慕的造型師,舞者討厭造型師？,的,羨慕,造型師,姐姐,舞者,j,想要,12,2,48,0,1,1,15,space,0.350091321443,space,3.35901504682,space,0.543525019549,space,0.340483524049,space,1.08370349406,space,0.416740383025,space,1.95900502061,j,1,6.75152949108,SPR,37,A,,f,50.0179470473,001,2017_01_20_0836,
李老師今天看上去很不舒服,老師今天不舒服？,很,上去,不舒服,李老師,看,f,今天,12,3,9,0,2,2,16,space,0.350417370772,space,0.517115023966,space,0.667120609436,space,0.540261763138,space,0.850421120734,space,0.717145497341,space,1.6873214574,f,1,2.82974698809,SPR,37,A,,f,50.0179470473,001,2017_01_20_0836,
記者打壓邀請王總的政客,記者打壓政客？,的,王總,政客,記者,邀請,f,打壓,11,1,13,0,3,3,4,space,0.360453453301,space,1.22357076119,space,0.317089682118,space,0.253883480391,space,0.933475673996,space,1.27353486024,space,0.34807621028,f,1,1.40328117728,SPR,37,A,,f,50.0179470473,001,2017_01_20_0836,
教授同情欺瞞群眾的主席,教授批評主席？,的,群眾,主席,教授,欺瞞,j,同情,11,1,16,0,4,4,7,space,0.347244113448,space,0.433695342824,space,0.41703406426,space,0.350477764896,space,1.26897095911,space,1.51686318441,space,0.553369261917,j,1,1.27050844353,SPR,37,A,,f,50.0179470473,001,2017_01_20_0836,
鄰居的奶奶一個字也不認識,鄰居的奶奶識字？,也,一個字,不認識,鄰居,奶奶,j,的,12,3,10,0,5,5,17,space,0.350333292676,space,0.393698248057,space,0.433648369615,space,0.360173982448,space,0.33330925463,space,0.440474089934,space,0.670621889752,j,1,1.47073786226,SPR,37,A,,f,50.0179470473,001,2017_01_20_0836,
新發芽的種子需要很多肥料,種子需要肥料？,很多,需要,肥料,新發芽,種子,f,的,12,3,13,0,6,6,20,space,0.317152839373,space,0.583673296994,space,0.400463179518,space,0.783761401365,space,0.683982412284,space,0.36476196228,space,0.500543349758,f,1,1.40062383578,SPR,37,A,,f,50.0179470473,001,2017_01_20_0836,
旅客結識科學家佩服的商人,科學家佩服商人？,的,佩服,商人,旅客,科學家,f,結識,12,2,45,0,7,7,12,space,0.383787690572,space,1.38382005867,space,1.07362399091,space,0.450452936201,space,0.45016399176,space,1.27362012253,space,0.370292958874,f,1,1.82217009117,SPR,37,A,,f,50.0179470473,001,2017_01_20_0836,
這個問題同學們一起討論過,問題沒有被討論？,一起,們,討論過,這個,同學,j,問題,12,3,16,0,8,8,23,space,0.350341582066,space,0.400407916919,space,0.359829775409,space,0.333782539308,space,0.333801486485,space,0.343450730828,space,0.370554272016,j,1,2.68148454285,SPR,37,A,,f,50.0179470473,001,2017_01_20_0836,
院長刁難厭煩醫生的病人,病人刁難院長？,的,醫生,病人,院長,厭煩,j,刁難,11,1,10,0,9,9,1,space,0.333756881674,space,0.400370812033,space,0.487022170959,space,2.15033479266,space,0.383674402246,space,0.933823828364,space,0.367031676127,j,1,1.20438990289,SPR,37,A,,f,50.0179470473,001,2017_01_20_0836,
室友鼓足勇氣參加了圍棋比賽,室友參加了比賽？,圍棋,參加了,比賽,室友,勇氣,f,鼓足,13,3,11,0,10,10,18,space,0.333830696715,space,0.400401601194,space,0.720527568339,space,0.320614646404,space,0.317295732662,space,0.450631750178,space,0.320616620068,f,1,1.09594494898,SPR,37,A,,f,50.0179470473,001,2017_01_20_0836,
我們週末約了一起去打籃球,我們不想打籃球？,打,一起去,籃球,我們,約了,j,週末,12,3,12,0,11,11,19,space,0.313557217907,space,0.400482521427,space,0.300487218748,space,0.317022972267,space,0.703896684204,space,0.487144538141,space,0.752236062871,j,1,1.95382494151,SPR,37,A,,f,50.0179470473,001,2017_01_20_0836,
警察逮捕兇嫌唆使的槍手,警察逮捕兇嫌？,的,唆使,槍手,警察,兇嫌,j,逮捕,11,2,42,0,12,12,9,space,0.98042322466,space,0.800403338019,space,0.967097438618,space,0.417093274186,space,1.54377251704,space,0.300399588057,space,0.517088576866,j,1,1.82515269253,SPR,37,A,,f,50.0179470473,001,2017_01_20_0836,
王總讚賞維護隊員的教練,王總讚賞教練？,的,隊員,教練,王總,維護,f,讚賞,11,1,15,0,13,13,6,space,0.357097434671,space,0.923940507445,space,0.400463574251,space,1.36923270646,space,0.367159569568,space,0.367164701094,space,0.59063756854,f,1,1.03680133767,SPR,37,A,,f,50.0179470473,001,2017_01_20_0836,
小林懷疑廣播員攔住的大叔,廣播員沒攔大叔？,的,攔住,大叔,小林,廣播員,j,懷疑,12,2,46,0,14,14,13,space,0.330635334353,space,1.18343906252,space,1.17725044102,space,1.75403170257,space,0.317187970596,space,1.20734210982,space,0.390506043557,j,1,1.31716428663,SPR,37,A,,f,50.0179470473,001,2017_01_20_0836,
局長辭退老闆害怕的藥劑師,局長辭退藥劑師？,的,害怕,藥劑師,局長,老闆,f,辭退,12,2,43,0,15,15,10,space,0.433765605269,space,0.350360529242,space,0.517047919383,space,0.350411055046,space,0.43366573786,space,0.400463179518,space,0.520370385721,f,1,1.38732962837,SPR,37,A,,f,50.0179470473,001,2017_01_20_0836,
小郭嘲笑嫉妒哥哥的富商,小郭欣賞富商？,的,哥哥,富商,小郭,嫉妒,j,嘲笑,11,1,14,0,16,16,5,space,0.260554860168,space,0.466888032845,space,0.450413462916,space,1.14024502646,space,0.767164069522,space,0.45009333458,space,0.51704752465,j,1,2.25906474369,SPR,37,A,,f,50.0179470473,001,2017_01_20_0836,
攝影師誣陷認識張三的司機,攝影師誣陷司機？,的,張三,司機,攝影師,認識,f,誣陷,12,1,9,0,17,17,0,space,0.350349871455,space,0.740610391184,space,0.68036902784,space,3.23386342007,space,0.283724888577,space,0.76713051723,space,0.400426074631,f,1,2.08381283505,SPR,37,A,,f,50.0179470473,001,2017_01_20_0836,
爺爺羨慕拜訪總統的老人,爺爺羨慕老人？,的,總統,老人,爺爺,拜訪,f,羨慕,11,1,11,0,18,18,2,space,0.300429587753,space,0.350412239245,space,0.367103517504,space,0.366996150171,space,1.08351875909,space,0.300371167292,space,0.423978993897,f,1,1.58068832724,SPR,37,A,,f,50.0179470473,001,2017_01_20_0836,
舅舅斥責女婿讚賞的工程師,女婿讚賞工程師？,的,讚賞,工程師,舅舅,女婿,f,斥責,12,2,47,0,19,19,14,space,0.450465567651,space,0.66161566521,space,1.8334164246,space,1.06060372809,space,0.517101208316,space,0.366876546119,space,0.510450749381,f,1,1.26711532002,SPR,37,A,,f,50.0179470473,001,2017_01_20_0836,
經常跑步能夠提高身體素質,跑步不利於健康？,身體,提高,素質,經常,能夠,j,跑步,12,3,14,0,20,20,21,space,0.333790039233,space,1.55358754918,space,0.550328240095,space,0.300450508593,space,0.267003215888,space,0.320618988465,space,0.317079419064,j,1,1.25406347857,SPR,37,A,,f,50.0179470473,001,2017_01_20_0836,
為了進步就要不斷嚐試新方法,進步需要新方法？,嘗試,不斷,新方法,為了,就要,f,進步,13,3,15,0,21,21,22,space,0.400212918895,space,0.555743579966,space,0.487154406462,space,0.400456469059,space,0.337261319853,space,0.373724371476,space,0.867064636319,f,1,1.13377259204,SPR,37,A,,f,50.0179470473,001,2017_01_20_0836,
叔叔推薦欣賞小王的村長,村長推薦叔叔？,的,小王,村長,叔叔,欣賞,j,推薦,11,1,12,0,22,22,3,space,0.317062840285,space,0.383738348967,space,0.467030926134,space,3.19918535036,space,1.39705268776,space,0.517098445187,space,0.400401995927,j,1,1.18059224926,SPR,37,A,,f,50.0179470473,001,2017_01_20_0836,
心理師理解小金關心的助教,心理師理解助教？,的,關心,助教,心理師,小金,f,理解,12,2,41,0,23,23,8,space,0.417087353194,space,0.917074129643,space,1.12047601623,space,3.50241833076,space,0.816766198553,space,0.507183545641,space,0.983395168233,f,1,2.68591265588,SPR,37,A,,f,50.0179470473,001,2017_01_20_0836,
