Sentences,Question,word5,word4,word6,word1,word3,Ans,word2,lenth,Type,ID,practicetrials.thisRepN,practicetrials.thisTrialN,practicetrials.thisN,practicetrials.thisIndex,key_resp_12.keys,key_resp_12.rt,Atests1.keys,Atests1.rt,Atests2.keys,Atests2.rt,Atests3.keys,Atests3.rt,Atests4.keys,Atests4.rt,Atests5.keys,Atests5.rt,Atests6.keys,Atests6.rt,key_resp_8.keys,key_resp_8.corr,key_resp_8.rt,expName,participant,version,Grade,Gender,frameRate,session,date,
熱鬧的夜市有很多美味的食物,夜市很多美食?,的,美味,食物,熱鬧的,有很多,f,夜市,13,3,61,0,0,0,20,space,1.40401893297,space,1.04358008478,space,1.06052517626,space,0.937141163175,space,0.973623556709,space,1.28825918474,space,1.20007665712,f,1,2.39704558257,SPR,40,B,,m,50.0092581989,001,2017_01_20_1200,
外婆感激叔叔協助的警察,外婆感激警察？,的,協助,警察,外婆,叔叔,f,感激,11,2,31,0,1,1,6,space,1.03346426622,space,0.874689295912,space,0.91701807758,space,1.19709800309,space,1.71256264904,space,0.920742381953,space,2.70042382465,j,0,7.07222111039,SPR,40,B,,m,50.0092581989,001,2017_01_20_1200,
童年的回憶總是美好而快樂的,童年回憶很痛苦?,而,美好,快樂的,童年的,總是,j,回憶,13,3,62,0,2,2,21,space,0.0838152034503,space,2.25588517064,space,0.733722697811,space,1.71702391963,space,0.94330531125,space,0.673864620056,space,1.11908339876,j,1,2.30036366737,SPR,40,B,,m,50.0092581989,001,2017_01_20_1200,
朋友毆打駕駛員碰見的盜賊,朋友幫助盜賊？,的,碰見,盜賊,朋友,駕駛員,j,毆打,12,2,32,0,3,3,7,space,0.477143981569,space,0.853371354002,space,0.733730197733,space,2.49925533649,space,0.840461616375,space,0.953854546473,space,1.78057669679,j,1,2.02568092402,SPR,40,B,,m,50.0092581989,001,2017_01_20_1200,
我今天學會了一個新的技能,我沒學會技能?,新的,一個,技能,我,學會了,j,今天,12,3,60,0,4,4,19,space,0.433712711068,space,1.18698613185,space,0.837017967055,space,1.81048994635,space,2.14123422697,space,1.42591871109,space,3.3336297777,j,1,1.509251551,SPR,40,B,,m,50.0092581989,001,2017_01_20_1200,
法官偏袒詆毀代理商的律師,律師詆毀代理商？,的,代理商,律師,法官,詆毀,f,偏袒,12,1,61,0,5,5,12,space,0.720093362212,space,0.836629549936,space,3.70239117314,space,2.05382774411,space,2.0769614571,space,2.36727601576,space,1.84237212334,j,0,1.73371361895,SPR,40,B,,m,50.0092581989,001,2017_01_20_1200,
隔壁的大伯擅長修理各種電器,大伯不會修電器?,各種,修理,電器,隔壁的,擅長,j,大伯,13,3,64,0,6,6,23,space,0.686960671583,space,2.06709313603,space,1.81034350047,space,1.51729383794,space,0.919305949137,space,1.37702828537,space,0.577065863938,j,1,1.11702052492,SPR,40,B,,m,50.0092581989,001,2017_01_20_1200,
導演無視撞見業務員的藝人,藝人撞見業務員？,的,業務員,藝人,導演,撞見,f,無視,12,1,63,0,7,7,14,space,0.500175064017,space,0.726954608486,space,1.55372373201,space,1.98344845717,space,1.0836679681,space,0.700327904573,space,3.42569016077,j,0,4.81038376322,SPR,40,B,,m,50.0092581989,001,2017_01_20_1200,
群眾反感討好主播的發言人,群眾反感發言人？,的,主播,發言人,群眾,討好,f,反感,12,1,57,0,8,8,8,space,0.517069234957,space,1.75205093317,space,2.55443346166,space,2.76487106644,space,3.29002245635,space,2.71050135413,space,3.2739177511,f,1,3.11053151172,SPR,40,B,,m,50.0092581989,001,2017_01_20_1200,
媽媽的拿手菜是糖醋排骨,媽媽有拿手菜?,糖醋,是,排骨,媽媽,拿手菜,f,的,11,3,59,0,9,9,18,space,0.430385507936,space,0.842036995151,space,0.577532832891,space,0.637223938651,space,0.733938616673,space,0.870569863962,space,0.540362420013,f,1,2.10558471973,SPR,40,B,,m,50.0092581989,001,2017_01_20_1200,
小明認識捧紅大姑姑的明星,小明認識大姑姑？,的,大姑姑,明星,小明,捧紅,j,認識,12,1,60,0,10,10,11,space,0.416899460361,space,0.750298319346,space,0.90056284956,space,2.03404886556,space,2.0167098307,space,1.90038048299,space,3.39051235928,f,0,4.0515343463,SPR,40,B,,m,50.0092581989,001,2017_01_20_1200,
上司懲罰責罵小明的管理員,上司懲罰管理員？,的,小明,管理員,上司,責罵,f,懲罰,12,1,59,0,11,11,10,space,0.883778809082,space,2.82707859407,space,3.68787566231,space,3.08372638856,space,1.61714190527,space,0.690088534628,space,3.14485234821,j,0,1.92712758042,SPR,40,B,,m,50.0092581989,001,2017_01_20_1200,
助手賄賂小吳批評的評論家,助手賄賂評論家？,的,批評,評論家,助手,小吳,f,賄賂,12,2,29,0,12,12,4,space,0.750516211876,space,1.43371586893,space,2.91699360414,None,,space,0.0405694573892,space,3.25373348191,None,,f,1,2.91717004972,SPR,40,B,,m,50.0092581989,001,2017_01_20_1200,
每個人都應該要遵守交通規則,交通規則要遵守?,交通,遵守,規則,每個人,要,f,都應該,13,3,63,0,13,13,22,space,0.439854754104,space,0.690601292592,space,2.83066079462,space,0.717097734667,space,0.753668153626,space,0.607156348548,space,0.923900639429,f,1,1.23723720168,SPR,40,B,,m,50.0092581989,001,2017_01_20_1200,
小明昨天吃了一碗美味的小米粥,昨天沒吃小米粥?,的,美味,小米粥,小明,吃了一碗,j,昨天,12,3,58,0,14,14,17,space,0.383742691029,space,0.583786190587,space,2.59037586067,space,1.7323849482,space,0.593695563874,space,0.43384336764,space,0.713857767494,j,1,1.64067587736,SPR,40,B,,m,50.0092581989,001,2017_01_20_1200,
政府豁免犯人檢舉的同伴,同伴豁免政府？,的,檢舉,同伴,政府,犯人,j,豁免,11,2,26,0,15,15,1,space,0.327285631447,space,0.503910815642,space,0.487214800587,space,1.09055131941,space,3.70387931596,space,0.551356913884,None,,j,1,2.79379669443,SPR,40,B,,m,50.0092581989,001,2017_01_20_1200,
教授排斥支持小林的研究員,研究員不支持小林？,的,小林,研究員,教授,支持,j,排斥,12,1,64,0,16,16,15,space,0.367126017276,space,0.533752223826,space,0.780562091673,None,,space,0.383619929115,space,1.30392415761,space,2.5257509891,f,0,7.6189485975,SPR,40,B,,m,50.0092581989,001,2017_01_20_1200,
店長錯怪顧客熟悉的職工,店長錯怪職工？,的,熟悉,職工,店長,顧客,f,錯怪,11,2,25,0,17,17,0,space,0.393631143474,space,0.88728719459,space,1.45006294015,None,,None,,space,1.39051985921,space,2.80696853466,f,1,4.93859220111,SPR,40,B,,m,50.0092581989,001,2017_01_20_1200,
鄰居尊敬市民信任的委員,委員尊敬鄰居？,的,信任,委員,鄰居,市民,j,尊敬,11,2,28,0,18,18,3,space,0.500581244112,space,2.50240806771,space,1.66368248637,space,3.48905109777,None,,space,0.652393521803,space,1.82703635766,j,1,1.58715839326,SPR,40,B,,m,50.0092581989,001,2017_01_20_1200,
海關扣留侮辱空服員的旅客,海關扣留空服員？,的,空服員,旅客,海關,侮辱,j,扣留,12,1,58,0,19,19,9,space,0.383689007362,space,0.583803953565,space,1.58380513776,space,1.6871904061,space,0.650336963692,space,0.550505869875,space,2.43030221931,j,1,1.38104034999,SPR,40,B,,m,50.0092581989,001,2017_01_20_1200,
警衛攔住責備治療師的婦女,婦女沒責備治療師？,的,治療師,婦女,警衛,責備,j,攔住,12,1,62,0,20,20,13,space,0.350427239093,space,0.690511293504,space,1.57077342769,space,3.518051725,space,3.25486123364,space,1.10363750262,space,2.22410009793,j,1,8.76197570104,SPR,40,B,,m,50.0092581989,001,2017_01_20_1200,
律師帮助上尉惹怒的服務員,律師無視服務員？,的,惹怒,服務員,律師,上尉,j,幫助,12,2,30,0,21,21,5,space,0.537081400622,space,1.9904762807,space,0.917052419338,space,1.57402602631,space,1.65045498881,space,0.656958212396,None,,j,1,4.36897218278,SPR,40,B,,m,50.0092581989,001,2017_01_20_1200,
大叔喜歡孩子親近的阿姨,大叔喜歡阿姨？,的,親近,阿姨,大叔,孩子,f,喜歡,11,2,27,0,22,22,2,space,0.393736537144,space,1.77363058295,space,1.21712240547,space,1.33687290274,space,0.910201830851,space,0.47722055974,space,1.86913935214,f,1,1.16677857343,SPR,40,B,,m,50.0092581989,001,2017_01_20_1200,
朋友們推薦了許多好聽的歌曲,朋友推薦了歌曲?,的,好聽,歌曲,朋友們,許多,f,推薦了,13,3,57,0,23,23,16,space,0.373689634986,space,2.3604246378,space,0.8503954631,space,2.91370429536,space,0.783811532436,space,0.483761282945,space,1.64316703633,f,1,3.22252550862,SPR,40,B,,m,50.0092581989,001,2017_01_20_1200,
助教嫌棄愛慕局長的學生,助教嫌棄學生？,的,局長,學生,助教,愛慕,f,嫌棄,11,1,33,0,0,0,8,space,0.711612921818,space,1.75040568668,space,2.86683766493,space,2.92762060174,space,2.20567831089,space,0.416962222882,space,1.34723740299,f,1,2.61382338626,SPR,40,B,,m,50.0092581989,001,2017_01_20_1200,
老師調查弟弟傷害的同學,同學調查老師？,的,傷害,同學,老師,弟弟,j,調查,11,2,4,0,1,1,3,space,0.383791243168,space,0.674061986476,space,0.687253563352,space,1.19997007925,space,1.26706637314,space,0.517059366635,space,1.23375092121,j,1,1.73368559292,SPR,40,B,,m,50.0092581989,001,2017_01_20_1200,
手機是個既方便又重要的發明,手機讓人不方便?,的,又重要,發明,手機,既方便,j,是個,13,3,36,0,2,2,19,space,0.350441054741,space,0.667102451725,space,0.683746362043,space,0.633725816198,space,0.38374150683,space,0.483768388136,space,0.550507054073,j,1,1.48565560586,SPR,40,B,,m,50.0092581989,001,2017_01_20_1200,
校長相信房東厭惡的小孩,小孩相信校長？,的,厭惡,小孩,校長,房東,j,相信,11,2,2,0,3,3,1,space,0.33378135511,space,0.603908091984,space,1.66388301066,space,1.5304514678,space,1.8213964148,space,2.78818911966,space,3.04043445876,j,1,3.33144414195,SPR,40,B,,m,50.0092581989,001,2017_01_20_1200,
敵人搜查掩護戰士的村民,村民沒掩護戰士？,的,戰士,村民,敵人,掩護,j,搜查,11,1,40,0,4,4,15,space,0.450424120703,space,0.663572355912,space,2.15067742077,space,1.83399470821,space,1.38229362676,space,0.353968387426,space,0.770631797546,j,1,1.66717350364,SPR,40,B,,m,50.0092581989,001,2017_01_20_1200,
證人揭發指使搶匪的殺手,證人揭發殺手？,的,搶匪,殺手,證人,指使,f,揭發,11,1,35,0,5,5,10,space,0.350443817872,space,0.900415614211,space,0.65015499185,space,1.21713148433,space,1.42368176007,space,1.21900646533,space,3.10363631842,f,1,1.25593135438,SPR,40,B,,m,50.0092581989,001,2017_01_20_1200,
每年都會頒布新的法規制度,年年都沒新制度?,法規,的,制度,每年,新,j,都會頒布,12,3,34,0,6,6,17,space,0.507086046628,space,2.64039956437,space,1.32602840734,space,1.41712090549,space,1.0673607649,None,,space,1.06737734368,j,1,1.50145084056,SPR,40,B,,m,50.0092581989,001,2017_01_20_1200,
阿姨親手製作了一個生日蛋糕,阿姨沒做蛋糕?,生日,一個,蛋糕,阿姨,製作了,j,親手,13,3,38,0,7,7,21,space,0.343801648325,space,0.640413774756,space,0.650273806437,space,2.21560386822,space,0.760298875919,space,1.55044902835,space,0.443532085266,j,1,0.9003698252,SPR,40,B,,m,50.0092581989,001,2017_01_20_1200,
聽說吃黑巧克力可以提高智商,吃巧克力沒有益處?,提高,可以,智商,聽說,黑巧克力,j,吃,13,3,40,0,8,8,23,space,0.347225955737,space,0.583731322722,space,1.37709973202,space,1.07757487194,space,0.367021807806,space,0.421637438674,space,0.550644421102,j,1,1.55363728552,SPR,40,B,,m,50.0092581989,001,2017_01_20_1200,
善待動物們是對生命的尊重,應該善待動物?,的,生命,尊重,善待,是對,f,動物們,12,3,35,0,9,9,18,space,0.283723309647,space,0.783731006937,space,0.804538954013,space,1.03726712242,space,1.51701318289,space,0.640589036137,space,1.35387207261,f,1,1.73347638452,SPR,40,B,,m,50.0092581989,001,2017_01_20_1200,
王董賞識工人表揚的廠長,王董賞識廠長？,的,表揚,廠長,王董,工人,f,賞識,11,2,3,0,10,10,2,space,0.367060491624,space,0.47056694294,space,0.600332207161,space,0.717132471158,space,0.717070498102,space,0.433776657788,space,0.870531180144,f,1,0.966629285465,SPR,40,B,,m,50.0092581989,001,2017_01_20_1200,
商人質疑賄賂小陳的企劃員,商人質疑小陳？,的,小陳,企劃員,商人,賄賂,j,質疑,12,1,36,0,11,11,11,space,0.343778359089,space,0.533777486729,space,1.60038589083,space,0.947178429902,space,1.75251987578,space,2.24369424152,space,0.71710483986,j,1,0.973644872282,SPR,40,B,,m,50.0092581989,001,2017_01_20_1200,
村民擔心襲擊刺客的鐵匠,鐵匠襲擊了刺客？,的,刺客,鐵匠,村民,襲擊,f,擔心,11,1,39,0,12,12,14,space,0.31077632503,space,0.433445082201,space,0.543602387186,space,1.68376215136,space,1.62566616101,space,0.566967808354,space,0.633449503208,j,0,1.64029377597,SPR,40,B,,m,50.0092581989,001,2017_01_20_1200,
和朋友們一起喝下午茶很開心,喝下午茶很開心?,下午茶,喝,很開心,和,一起,f,朋友們,13,3,39,0,13,13,22,space,0.367122464679,space,1.08355152191,space,1.03553227158,space,1.65387534889,space,0.577023627524,space,2.50926694559,space,0.37033953735,f,1,0.98041927733,SPR,40,B,,m,50.0092581989,001,2017_01_20_1200,
村民援助小潘舉薦的水手,村民援助水手？,的,舉薦,水手,村民,小潘,f,援助,11,2,7,0,14,14,6,space,0.323770535484,space,0.567098859658,space,0.517068050758,space,0.583742375242,space,1.28348607521,space,0.350430002221,space,0.61706256397,f,1,1.23562787587,SPR,40,B,,m,50.0092581989,001,2017_01_20_1200,
小紅取笑小張崇拜的作家,小紅取笑作家？,的,崇拜,作家,小紅,小張,f,取笑,11,2,1,0,15,15,0,space,0.300493929206,space,0.504044235342,space,0.664004193641,space,0.804050274754,space,1.49912941671,space,0.44043343245,space,0.59362688036,f,1,2.48380470356,SPR,40,B,,m,50.0092581989,001,2017_01_20_1200,
強盜綁架誣陷主人的管家,強盜綁架主人？,的,主人,管家,強盜,誣陷,j,綁架,11,1,34,0,16,16,9,space,0.400328180885,space,0.567067675762,space,2.83012790528,None,,space,1.79381327321,space,0.417063669223,space,0.60036694365,j,1,1.18719810339,SPR,40,B,,m,50.0092581989,001,2017_01_20_1200,
爺爺一句話就把大家逗開心了,爺爺逗大家開心?,逗,大家,開心了,爺爺,就把,f,一句話,12,3,33,0,17,17,16,space,0.400496731809,space,0.668090468031,space,0.650396173616,space,0.633843841319,space,1.85010454499,space,0.800493337108,space,0.417263009309,f,1,0.912392992861,SPR,40,B,,m,50.0092581989,001,2017_01_20_1200,
粉絲大罵小周羞辱的導演,粉絲大罵導演？,的,羞辱,導演,粉絲,小周,f,大罵,11,2,5,0,18,18,4,space,0.350451712528,space,0.420508897476,space,0.507985642776,space,1.72394398109,space,1.56368284163,space,1.34031734152,space,0.454167372252,f,1,2.26205958176,SPR,40,B,,m,50.0092581989,001,2017_01_20_1200,
留學的生活能夠磨礪人的意志,留學能鍛鍊人?,人的,磨礪,意志,留學的,能夠,f,生活,13,3,37,0,19,19,20,space,0.300440640272,space,0.539746636778,space,1.50007361768,space,0.408986251061,space,0.520611172755,space,0.350386581611,space,0.317203759911,f,1,1.21031563233,SPR,40,B,,m,50.0092581989,001,2017_01_20_1200,
小劉愛慕領隊欽佩的組長,小劉討厭組長？,的,欽佩,組長,小劉,領隊,j,愛慕,11,2,6,0,20,20,5,space,0.300451692792,space,0.373885817211,space,0.409174538627,space,0.750334634768,space,0.500370851505,space,1.05044290999,space,0.567066886295,j,1,1.48373088852,SPR,40,B,,m,50.0092581989,001,2017_01_20_1200,
外婆檢舉救治嬸嬸的鄰居,鄰居沒救嬸嬸？,的,嬸嬸,鄰居,外婆,救治,j,檢舉,11,1,38,0,21,21,13,space,0.433813367943,space,0.530318048093,space,1.61047210443,space,1.79912164048,space,1.30015090637,space,0.44036948573,space,3.92667245345,j,1,2.18370984926,SPR,40,B,,m,50.0092581989,001,2017_01_20_1200,
名嘴毀謗徐總賞識的詩人,名嘴稱讚詩人？,的,賞識,詩人,名嘴,徐總,j,毀謗,11,2,8,0,22,22,7,space,0.373750423843,space,0.513413219367,space,1.44663271175,space,0.667137188215,space,0.53375972375,space,0.383780190648,space,0.467102372779,f,0,1.04556045945,SPR,40,B,,m,50.0092581989,001,2017_01_20_1200,
小李暗戀招待船長的賓客,賓客招待過船長？,的,船長,賓客,小李,招待,f,暗戀,11,1,37,0,23,23,12,space,0.360430558796,space,1.15007426898,space,1.91388074095,space,1.489189649,space,0.576675473156,space,0.687281984117,space,0.54687551192,j,0,3.58466802376,SPR,40,B,,m,50.0092581989,001,2017_01_20_1200,
小郭嘲笑哥哥嫉妒的富商,小郭欣賞富商？,的,嫉妒,富商,小郭,哥哥,j,嘲笑,11,2,14,0,0,0,5,space,0.420599686029,space,0.850259675,space,1.50026940517,space,1.05045830457,space,2.15036992388,space,0.750417528665,space,2.03718778112,j,1,2.10811495726,SPR,40,B,,m,50.0092581989,001,2017_01_20_1200,
王總讚賞隊員維護的教練,王總讚賞教練？,的,維護,教練,王總,隊員,f,讚賞,11,2,15,0,1,1,6,space,0.316987051579,space,0.433483371287,space,0.657195446835,space,0.550127321079,space,0.923608142391,space,0.503834237468,space,1.06709747809,f,1,0.976919575947,SPR,40,B,,m,50.0092581989,001,2017_01_20_1200,
姐姐想要羨慕舞者的造型師,造型師討厭舞者？,的,舞者,造型師,姐姐,羨慕,j,想要,12,1,48,0,2,2,15,space,0.350423291766,space,0.726816057258,space,0.617301377342,space,1.76702117623,space,0.400327391419,space,0.400370022568,space,0.617319929786,j,1,6.80190174389,SPR,40,B,,m,50.0092581989,001,2017_01_20_1200,
記者打壓王總邀請的政客,記者打壓政客？,的,邀請,政客,記者,王總,f,打壓,11,2,13,0,3,3,4,space,0.350459212454,space,0.530499230468,space,1.78725005023,space,2.02909062632,space,1.5169567361,space,0.79039804465,space,2.45811509541,f,1,1.55040008147,SPR,40,B,,m,50.0092581989,001,2017_01_20_1200,
明星資助尊敬在地人的導遊,明星資助在地人？,的,在地人,導遊,明星,尊敬,j,資助,12,1,44,0,4,4,11,space,0.317060471887,space,0.416985906853,space,0.457626810887,space,0.700116327769,space,1.81042521017,space,0.33369254022,space,2.0304485073,j,1,1.42923762483,SPR,40,B,,m,50.0092581989,001,2017_01_20_1200,
旅客結識佩服科學家的商人,商人佩服科學家？,的,科學家,商人,旅客,佩服,f,結識,12,1,45,0,5,5,12,space,0.317259417239,space,0.450500698875,space,0.840623062109,space,1.57849124423,space,2.06020504792,space,0.500433219297,space,1.4782429178,f,1,5.07422674797,SPR,40,B,,m,50.0092581989,001,2017_01_20_1200,
警察逮捕唆使兇嫌的槍手,警察逮捕兇嫌？,的,兇嫌,槍手,警察,唆使,j,逮捕,11,1,42,0,6,6,9,space,0.380329041403,space,0.617113089776,space,0.700072907155,space,1.23041384975,space,0.703649186711,space,0.390502885693,space,2.0937565501,j,1,1.08045918482,SPR,40,B,,m,50.0092581989,001,2017_01_20_1200,
舅舅斥責讚賞女婿的工程師,工程師讚賞女婿？,的,女婿,工程師,舅舅,讚賞,f,斥責,12,1,47,0,7,7,14,space,0.300444982335,space,0.520666830087,space,0.573942737687,space,3.48796716139,space,1.42055823908,space,3.31355169165,space,0.750438844238,j,0,4.9091423679,SPR,40,B,,m,50.0092581989,001,2017_01_20_1200,
她的書架上擺放了一大堆的書,書架上沒有書?,的,一大堆,書,她的,擺放了,j,書架上,13,3,42,0,8,8,17,space,0.370035987795,space,0.62048923978,space,2.0279798481,space,3.00698756078,space,0.42061902794,space,0.377042890486,space,0.383729664843,j,1,2.13729795106,SPR,40,B,,m,50.0092581989,001,2017_01_20_1200,
心理師理解關心小金的助教,心理師理解助教？,的,小金,助教,心理師,關心,f,理解,12,1,41,0,9,9,8,space,0.317091655781,space,0.41684538196,space,2.74802544764,space,2.78046104007,space,0.567160043247,space,0.70378497481,space,0.633745552841,f,1,1.15755169323,SPR,40,B,,m,50.0092581989,001,2017_01_20_1200,
攝影師誣陷張三認識的司機,攝影師誣陷司機？,的,認識,司機,攝影師,張三,f,誣陷,12,2,9,0,10,10,0,space,0.333795960225,space,0.431522733255,space,0.504022525034,space,0.533762092147,space,2.64036719628,space,0.800432548251,space,2.75742679975,f,1,2.9346800039,SPR,40,B,,m,50.0092581989,001,2017_01_20_1200,
大學部設置了許多不同的課程,大學課程有很多?,教學,的,課程,大學部,許多不同,f,設置了,13,3,47,0,11,11,22,space,0.313856425402,space,0.638218270682,space,0.823818100791,space,1.57715349463,space,0.415728682749,space,0.699710147674,space,0.421737306082,f,1,8.10110450197,SPR,40,B,,m,50.0092581989,001,2017_01_20_1200,
今年新出了很多部好看的美劇,今年有很多美劇?,的,好看,美劇,今年,很多部,f,新出了,13,3,41,0,12,12,16,space,0.400510152725,space,0.467064083692,space,1.57384050188,space,2.11709078737,space,1.06708760977,space,0.330384284265,space,0.500369272575,f,1,2.08376586185,SPR,40,B,,m,50.0092581989,001,2017_01_20_1200,
爺爺羨慕總統拜訪的老人,爺爺羨慕老人？,的,拜訪,老人,爺爺,總統,f,羨慕,11,2,11,0,13,13,2,space,0.360473584677,space,0.433760868475,space,1.64379821415,space,2.3060478203,space,0.430439586336,space,0.55051889606,space,1.45029385886,f,1,2.16475675181,SPR,40,B,,m,50.0092581989,001,2017_01_20_1200,
飛上太空是許多人心中的夢想,飛上太空是夢想?,的,心中,夢想,飛上太空,許多人,f,是,13,3,43,0,14,14,18,space,0.333774644652,space,1.46677908658,space,0.533679987717,space,0.933703434846,space,1.1171440763,space,0.400438311348,space,1.77367913509,f,1,2.12758633893,SPR,40,B,,m,50.0092581989,001,2017_01_20_1200,
姐姐非常喜歡吃抹茶霜淇淋,姐姐討厭霜淇淋?,抹茶,吃,霜淇淋,姐姐,喜歡,j,非常,12,3,46,0,15,15,21,space,0.3504477652,space,0.477029903775,space,1.30233851578,space,0.90043771925,space,0.693576788763,space,0.687193563961,space,0.80722668994,j,1,1.36051187376,SPR,40,B,,m,50.0092581989,001,2017_01_20_1200,
小林懷疑攔住廣播員的大叔,大叔沒攔廣播員？,的,廣播員,大叔,小林,攔住,j,懷疑,12,1,46,0,16,16,13,space,0.317043103641,space,0.552378877215,space,1.15026137235,space,1.47707332439,space,1.86938606017,space,0.700104880516,space,2.898764052,j,1,4.66386643188,SPR,40,B,,m,50.0092581989,001,2017_01_20_1200,
學校的操場上聚集了很多學生,操場上沒有學生?,很多,聚集了,學生,學校,操場上,j,的,13,3,44,0,17,17,19,space,0.317107445095,space,0.619043333378,space,0.700394614423,space,1.21051931447,space,1.52714439604,space,0.667190082417,space,2.12048154249,j,1,2.29158559841,SPR,40,B,,m,50.0092581989,001,2017_01_20_1200,
教授同情群眾欺瞞的主席,教授批評主席？,的,欺瞞,主席,教授,群眾,j,同情,11,2,16,0,18,18,7,space,0.317123234408,space,0.490558582498,space,1.2004394166,space,3.14471813904,space,2.31683744783,space,0.534442611568,space,2.53366577733,j,1,3.09817795267,SPR,40,B,,m,50.0092581989,001,2017_01_20_1200,
老師今天分配了很多重要的任務,老師分配了任務?,的,很多重要,任務,老師,分配了,f,今天,11,3,45,0,19,19,20,space,0.367087333458,space,0.483558784996,space,1.40712784884,space,1.14562957717,space,0.740389340794,space,0.383743480494,space,0.417069195484,f,1,1.44058027307,SPR,40,B,,m,50.0092581989,001,2017_01_20_1200,
小朋友需要父母的關愛和鼓勵,小朋友不需要鼓勵？,關愛和,的,鼓勵,小朋友,父母,j,需要,13,3,48,0,20,20,23,space,0.382145601947,space,0.410483867467,space,0.683646099902,space,1.68038797502,space,0.433527976098,space,0.663591697821,space,0.400226734544,j,1,0.944888189948,SPR,40,B,,m,50.0092581989,001,2017_01_20_1200,
院長刁難醫生厭煩的病人,病人刁難院長？,的,厭煩,病人,院長,醫生,j,刁難,11,2,10,0,21,21,1,space,0.350452896728,space,0.333765960529,space,0.400377522492,space,1.55034758201,space,2.94560463006,space,0.38367637591,space,0.567073596754,j,1,3.88796218775,SPR,40,B,,m,50.0092581989,001,2017_01_20_1200,
局長辭退害怕老闆的藥劑師,局長辭退藥劑師？,的,老闆,藥劑師,局長,害怕,f,辭退,12,1,43,0,22,22,10,space,0.317116129218,space,0.611435647295,space,1.00396785454,space,0.937115900273,space,1.9405777073,space,2.09465614625,space,0.650449857285,f,1,2.77386110693,SPR,40,B,,m,50.0092581989,001,2017_01_20_1200,
叔叔推薦小王欣賞的村長,村長推薦叔叔？,的,欣賞,村長,叔叔,小王,j,推薦,11,2,12,0,23,23,3,space,0.467104346442,space,0.500458482196,space,0.617158484052,space,2.50657684126,space,1.0768833,space,1.20683093079,space,1.75393894036,f,0,7.51650200386,SPR,40,B,,m,50.0092581989,001,2017_01_20_1200,
小張欽佩袒護隊長的消防員,校長欽佩隊長？,的,隊長,消防員,小張,袒護,j,欽佩,12,1,52,0,0,0,11,space,0.357212301928,space,0.817058300856,space,1.50044940334,None,,space,1.18217907529,space,0.717094576805,space,3.33729289848,f,0,3.09688165002,SPR,40,B,,m,50.0092581989,001,2017_01_20_1200,
博物館裡有很多珍貴的收藏品,有很多收藏品?,的,珍貴,收藏品,博物館裡,很多,j,有,13,3,56,0,1,1,23,space,0.366998123834,space,1.48057420997,space,0.650557224617,space,2.53233947498,space,1.8502632276,space,0.350356581914,space,0.423889784275,f,0,2.80639498784,SPR,40,B,,m,50.0092581989,001,2017_01_20_1200,
親近大自然的最好方式是旅遊,旅遊能親近自然?,是,最好方式,旅遊,親近,的,f,大自然,13,3,55,0,2,2,22,space,0.417103931974,space,2.39033354531,space,0.818150921365,space,2.73382098629,space,0.714054739183,space,0.330760464663,space,0.456878397415,f,1,2.78181813158,SPR,40,B,,m,50.0092581989,001,2017_01_20_1200,
每週都有寫不完的作業和報告,每週都有作業?,作業和,的,報告,每週,寫不完,f,都有,13,3,53,0,3,3,20,space,0.367096412312,space,0.600121025089,space,0.68727961572,space,0.487253484405,space,0.333682277167,space,0.427052383813,space,0.367052596968,f,1,1.7712057391,SPR,40,B,,m,50.0092581989,001,2017_01_20_1200,
主任指責上司嘲笑的會計,主任指責會計？,的,嘲笑,會計,主任,上司,f,指責,11,2,23,0,4,4,6,space,0.367092070252,space,0.567105570115,space,1.31470865361,space,3.51713910267,space,2.03916302427,space,0.52699479229,space,1.05012199219,f,1,1.62384249528,SPR,40,B,,m,50.0092581989,001,2017_01_20_1200,
週六有場精彩的戲劇要公演了,週六沒有戲劇?,戲劇,的,要公演了,週六,精彩,j,有場,13,3,54,0,5,5,21,space,0.383756111945,space,0.540660443308,space,1.17046222032,space,0.430541032676,space,0.456766688021,space,0.533414332513,space,0.400347917526,j,1,1.08756319179,SPR,40,B,,m,50.0092581989,001,2017_01_20_1200,
鄰居告發表弟砍傷的疑犯,鄰居告發疑犯？,的,砍傷,疑犯,鄰居,表弟,f,告發,11,2,21,0,6,6,4,space,0.706693761129,space,0.390589332186,space,0.533745118635,space,1.40099527939,space,1.68447819673,space,0.417168273427,space,2.20040073278,f,1,1.4689907747,SPR,40,B,,m,50.0092581989,001,2017_01_20_1200,
桌子上擺滿了一大堆舊的文件,桌上沒有文件?,的,舊,文件,桌子上,一大堆,j,擺滿了,12,3,52,0,7,7,19,space,0.317161523495,space,0.650352358272,space,2.20788131489,space,0.467011584224,space,0.670666889297,space,1.75031252973,space,3.31424365832,j,1,0.937093005768,SPR,40,B,,m,50.0092581989,001,2017_01_20_1200,
偵探跟蹤老婆迷戀的編輯,偵探跟蹤編輯？,的,迷戀,編輯,偵探,老婆,f,跟蹤,11,2,17,0,8,8,0,space,0.317216786094,space,0.804651452874,None,,space,0.167061202144,space,2.47823660208,space,0.476716880632,space,0.780321699373,f,1,0.827140961861,SPR,40,B,,m,50.0092581989,001,2017_01_20_1200,
小王關注資助航海家的演員,小王關注演員？,的,航海家,演員,小王,資助,f,關注,12,1,51,0,9,9,10,space,0.28038308033,space,0.396961109736,space,2.30399126219,space,1.66230250036,space,0.833648527509,space,0.417059327161,space,2.40686100943,f,1,0.873991408245,SPR,40,B,,m,50.0092581989,001,2017_01_20_1200,
阿姨看見驅趕交警的行政人員,行政人員驅趕交警？,的,交警,行政人員,阿姨,驅趕,f,看見,13,1,53,0,10,10,12,space,0.300434324547,space,0.490151612938,space,0.860557465405,space,2.12877014272,space,1.11050072256,space,0.813825438874,space,3.02058571249,f,1,2.2558366185,SPR,40,B,,m,50.0092581989,001,2017_01_20_1200,
老闆責罵雇主同情的技工,技工責罵老闆？,的,同情,技工,老闆,雇主,j,責罵,11,2,18,0,11,11,1,space,0.517123708089,space,1.37500133222,space,3.38001720246,space,2.19371395842,space,2.12064219876,space,0.470598521568,space,2.0757547588,f,0,1.55704817201,SPR,40,B,,m,50.0092581989,001,2017_01_20_1200,
治療師開導照顧小崔的飛行員,治療師開導飛行員？,的,小崔,飛行員,治療師,照顧,f,開導,13,1,49,0,12,12,8,space,0.600457337472,space,0.667070083633,space,0.905869243168,space,1.38378848004,space,1.58388803166,space,0.550459686132,space,0.850102571329,f,1,1.23387841991,SPR,40,B,,m,50.0092581989,001,2017_01_20_1200,
同伴欺負小郭取笑的廚師,同伴關心廚師？,的,取笑,廚師,同伴,小郭,j,欺負,11,2,22,0,13,13,5,space,0.316806263938,space,0.383702033545,space,1.86236692076,space,2.24711381214,space,0.840231881861,space,0.99374624757,space,2.85904998068,f,0,2.29997682918,SPR,40,B,,m,50.0092581989,001,2017_01_20_1200,
刑警緝拿輕視政府的逃亡者,逃亡者重視政府？,的,政府,逃亡者,刑警,輕視,j,緝拿,12,1,56,0,14,14,15,space,0.917161365604,space,1.15038531846,space,0.667072057297,space,1.31273222627,space,0.933300017881,space,1.57381129165,space,1.78055143389,j,1,4.19278120472,SPR,40,B,,m,50.0092581989,001,2017_01_20_1200,
音樂可以讓人身心得到放鬆,音樂會讓人放鬆?,得到,身心,放鬆,音樂,讓人,f,可以,12,3,51,0,15,15,18,space,0.333778197248,space,0.567117806833,space,1.23726364878,space,0.757180091729,space,0.463698591475,space,0.504061603586,space,0.864912552861,f,1,1.10423710181,SPR,40,B,,m,50.0092581989,001,2017_01_20_1200,
校園門口的那棵樹長滿了新葉,樹長滿了新葉?,長滿了,樹,新葉,校園門口,那棵,f,的,13,3,49,0,16,16,16,space,0.333774249919,space,0.477091876832,space,0.587337207242,space,0.607243189772,space,0.534764713568,space,0.533691040237,space,2.99372887933,f,1,3.45565985713,SPR,40,B,,m,50.0092581989,001,2017_01_20_1200,
科學家協助表姐熟識的院士,科學家排斥院士？,的,熟識,院士,科學家 ,表姐,j,協助,12,2,24,0,17,17,7,space,0.333802670684,space,0.383722559653,space,1.11705605088,space,2.55389267767,space,0.933755539583,space,0.483726151722,space,1.12136179673,j,1,1.68377873014,SPR,40,B,,m,50.0092581989,001,2017_01_20_1200,
青年佩服督促小謝的技術員,青年佩服小謝？,的,小謝,技術員,青年,督促,j,佩服,12,1,50,0,18,18,9,space,0.333786091904,space,0.567188464011,space,0.784776654236,space,2.27713916583,space,3.85037296333,space,0.467120530489,space,0.500550849683,j,1,3.08377415124,SPR,40,B,,m,50.0092581989,001,2017_01_20_1200,
贊助商支持拉攏貴族的青年,青年排斥貴族？,的,貴族,青年,贊助商,拉攏,j,支持,12,1,54,0,19,19,13,space,0.333725697779,space,0.820571028426,space,1.47724700684,space,3.40364867356,space,1.44033198611,space,0.319227160462,space,0.400561862729,j,1,2.77041706288,SPR,40,B,,m,50.0092581989,001,2017_01_20_1200,
外婆批評農夫辱罵的木匠,外婆批評木匠？,的,辱罵,木匠,外婆,農夫,f,批評,11,2,19,0,20,20,2,space,0.334780423935,space,0.51709883992,space,0.490595292653,space,1.04044906387,space,1.64022588192,space,0.967109280604,space,0.844470523127,f,1,1.92034922804,SPR,40,B,,m,50.0092581989,001,2017_01_20_1200,
每個人的相處方式都不一樣,相處方式都一樣?,都,方式,不一樣,每個人,相處,j,的,12,3,50,0,21,21,17,space,0.367002071163,space,0.417183273275,space,0.46803157389,space,0.570703954711,space,0.490281480044,space,0.333993326647,space,0.350566579786,j,1,1.91387955675,SPR,40,B,,m,50.0092581989,001,2017_01_20_1200,
妹妹迷戀表哥結識的中醫師,中醫師迷戀妹妹？,的,結識,中醫師,妹妹,表哥,j,迷戀,12,2,20,0,22,22,3,space,0.317115734486,space,0.393731800348,space,0.723632142148,space,1.30383218486,space,1.0337729473,space,0.517090945263,space,1.08349862771,j,1,4.0385792144,SPR,40,B,,m,50.0092581989,001,2017_01_20_1200,
媽媽討厭忽視小白的企業家,企業家忽視小白？,的,小白,企業家,媽媽,忽視,f,討厭,12,1,55,0,23,23,14,space,0.427137646106,space,1.8006326778,space,0.783759427701,space,1.85549580616,space,1.11716026035,space,0.433746658093,space,2.25021443862,f,1,1.20708434928,SPR,40,B,,m,50.0092581989,001,2017_01_20_1200,
