Sentences,Question,word5,word4,word6,word1,word3,Ans,word2,lenth,Type,ID,practicetrials.thisRepN,practicetrials.thisTrialN,practicetrials.thisN,practicetrials.thisIndex,key_resp_12.keys,key_resp_12.rt,Atests1.keys,Atests1.rt,Atests2.keys,Atests2.rt,Atests3.keys,Atests3.rt,Atests4.keys,Atests4.rt,Atests5.keys,Atests5.rt,Atests6.keys,Atests6.rt,key_resp_8.keys,key_resp_8.corr,key_resp_8.rt,expName,participant,version,Grade,Gender,frameRate,session,date,
名嘴毀謗賞識徐總的詩人,名嘴稱讚詩人？,的,徐總,詩人,名嘴,賞識,j,毀謗,11,1,8,0,0,0,7,space,1.28035663319,space,0.607188321883,space,0.867063846847,space,1.99064206844,space,2.61912820092,space,1.3837695329,space,1.24397450185,j,1,5.35431496287,SPR,43,A,,f,58.8496329728,001,2017_01_23_1108,
警察逮捕了正在逃跑的罪犯,罪犯正在逃跑？,的,逃跑,罪犯,警察,正在,f,逮捕了,12,3,1,0,1,1,16,space,0.703878131753,space,0.81721382559,space,0.670454128296,space,0.643753214623,space,0.757730744022,space,0.729371557652,space,0.566865177825,f,1,1.71782049048,SPR,43,A,,f,58.8496329728,001,2017_01_23_1108,
傳統小說有很多精華的部分,小說沒有精華？,的,精華,部分,傳統小說,很多 ,j,有 ,12,3,6,0,2,2,21,space,0.487825452292,space,0.807600501925,space,0.540689653542,space,0.727376972616,space,0.830142115708,space,0.703659449762,space,1.43149707559,j,1,1.09145762603,SPR,43,A,,f,58.8496329728,001,2017_01_23_1108,
小紅取笑崇拜小張的作家,小紅取笑作家？,的,小張,作家,小紅,崇拜,f,取笑,11,1,1,0,3,3,0,space,0.507280649908,space,0.714595128433,space,0.810131923703,space,1.25470215629,space,0.831200394372,space,0.547022352519,space,1.28386343981,f,1,3.07870736049,SPR,43,A,,f,58.8496329728,001,2017_01_23_1108,
老師這次沒有劃考試的重點,老師劃了重點？,的,劃考試,重點,老師,沒有,j,這次,12,3,4,0,4,4,19,space,0.433919551084,space,0.513876635756,space,0.547139982926,space,0.472333372396,space,0.93391698529,space,0.381546397461,space,0.387195024523,j,1,1.29387860151,SPR,43,A,,f,58.8496329728,001,2017_01_23_1108,
茶餐廳裡有很多好吃的甜點,餐廳裡有甜點？,的,好吃,甜點,茶餐廳裡,很多,f,有,12,3,5,0,5,5,20,space,0.497192067909,space,2.01682114537,space,0.517134760623,space,0.470092474075,space,0.607286215643,space,0.413477126567,space,0.531900137372,f,1,1.24014006695,SPR,43,A,,f,58.8496329728,001,2017_01_23_1108,
小李暗戀船長招待的賓客,船長招待過賓客？,的,招待,賓客,小李,船長,f,暗戀,11,2,37,0,6,6,12,space,0.498003638641,space,0.560371033091,space,0.691092734982,space,0.59875051264,space,0.660756726575,space,0.797116792412,space,0.657071105961,f,1,1.807294584,SPR,43,A,,f,58.8496329728,001,2017_01_23_1108,
證人揭發搶匪指使的殺手,證人揭發殺手？,的,指使,殺手,證人,搶匪,f,揭發,11,2,35,0,7,7,10,space,0.363087900274,space,0.521569584089,space,0.513951240224,space,0.680245081719,space,0.469664978446,space,0.647029497195,space,1.25217428722,f,1,2.65408258361,SPR,43,A,,f,58.8496329728,001,2017_01_23_1108,
公園裡擠滿了玩鬧的小孩,公園裡有小孩？,的,玩鬧,小孩,公園裡,滿了,f,擠,11,3,7,0,8,8,22,space,0.480355133244,space,0.522207077593,space,0.54994377034,space,0.440725534747,space,0.663450778229,space,0.39112972148,space,0.557082513755,f,1,1.29013219208,SPR,43,A,,f,58.8496329728,001,2017_01_23_1108,
外婆檢舉嬸嬸救治的鄰居,嬸嬸沒救鄰居？,的,救治,鄰居,外婆,嬸嬸,j,檢舉,11,2,38,0,9,9,13,space,0.453815270565,space,0.467471842712,space,0.660201337421,space,0.460197705892,space,2.18837045989,space,0.474024013209,space,2.77022403851,j,1,1.71673458046,SPR,43,A,,f,58.8496329728,001,2017_01_23_1108,
叔叔有很多棟房子和別墅,叔叔沒有房子？,和,房子,別墅,叔叔,很多棟,j,有,11,3,8,0,10,10,23,space,0.453505405283,space,0.508096167992,space,0.526979397691,space,0.620300952171,space,0.430380376405,space,0.400582783564,space,0.415090399736,j,1,1.12126587663,SPR,43,A,,f,58.8496329728,001,2017_01_23_1108,
王董賞識表揚工人的廠長,王董賞識廠長？,的,工人,廠長,王董,表揚,f,賞識,11,1,3,0,11,11,2,space,0.416677620553,space,0.583505535498,space,0.680604683293,space,1.09695546509,space,0.833503265865,space,1.14135462046,space,0.883870387101,f,1,4.25795080763,SPR,43,A,,f,58.8496329728,001,2017_01_23_1108,
究竟存不存在外星人仍是個謎,外星人是個謎？,是個,仍,謎,究竟,外星人,f,存不存在,13,3,3,0,12,12,18,space,0.391315245884,space,0.609128039097,space,0.87694243103,space,0.723784508999,space,0.717331811204,space,0.358302159351,space,0.547408401209,f,1,2.61255747802,SPR,43,A,,f,58.8496329728,001,2017_01_23_1108,
村民援助舉薦小潘的水手,村民援助水手？,的,小潘,水手,村民,舉薦,f,援助,11,1,7,0,13,13,6,space,0.480579736235,space,0.60062470421,space,0.663937878504,space,1.05189473741,space,1.65687689744,space,0.503714238701,space,0.841294502665,f,1,1.05075711734,SPR,43,A,,f,58.8496329728,001,2017_01_23_1108,
校長相信厭惡房東的小孩,小孩相信校長？,的,房東,小孩,校長,厭惡,j,相信,11,1,2,0,14,14,1,space,0.540138606448,space,0.54356686119,space,0.480486974004,space,0.680389159243,space,0.631310051191,space,0.419738378958,space,0.630405718286,j,1,1.89296147926,SPR,43,A,,f,58.8496329728,001,2017_01_23_1108,
村民擔心刺客襲擊的鐵匠,刺客襲擊了鐵匠？,的,襲擊,鐵匠,村民,刺客,f,擔心,11,2,39,0,15,15,14,space,0.54367067595,space,0.566929913999,space,0.517364495143,space,0.475172290986,space,0.60070246656,space,0.539930976985,space,0.740256315854,f,1,2.40037633828,SPR,43,A,,f,58.8496329728,001,2017_01_23_1108,
老師調查傷害弟弟的同學,同學調查老師？,的,弟弟,同學,老師,傷害,j,調查,11,1,4,0,16,16,3,space,0.536616010591,space,0.587427995808,space,0.620470292633,space,0.703714317642,space,0.630586505926,space,0.704943910474,space,0.680945337808,j,1,2.71372908459,SPR,43,A,,f,58.8496329728,001,2017_01_23_1108,
商人質疑小陳賄賂的企劃員,商人質疑小陳？,的,賄賂,企劃員,商人,小陳,j,質疑,12,2,36,0,17,17,11,space,0.443898792029,space,0.43947502115,space,1.9708174009,space,0.7273343415,space,0.573737476603,space,0.483824045456,space,0.809092592099,j,1,3.39720544941,SPR,43,A,,f,58.8496329728,001,2017_01_23_1108,
強盜綁架主人誣陷的管家,強盜綁架主人？,的,誣陷,管家,強盜,主人,j,綁架,11,2,34,0,18,18,9,space,0.557054882462,space,0.481358544144,space,0.461139538442,space,0.526673874469,space,1.98665447731,space,1.77488109661,space,0.810662049858,j,1,3.15025545139,SPR,43,A,,f,58.8496329728,001,2017_01_23_1108,
助教嫌棄局長愛慕的學生,助教嫌棄學生？,的,愛慕,學生,助教,局長,f,嫌棄,11,2,33,0,19,19,8,space,0.527286105091,space,0.429278282332,space,0.587017473648,space,0.477551740594,space,0.557888952957,space,0.423814785026,space,1.26151366619,f,1,1.97392986942,SPR,43,A,,f,58.8496329728,001,2017_01_23_1108,
粉絲大罵羞辱小周的導演,粉絲大罵導演？,的,小周,導演,粉絲,羞辱,f,大罵,11,1,5,0,20,20,4,space,0.487119275203,space,0.565842030279,space,0.480118688312,space,0.786739265954,space,0.560359191091,space,0.607309110172,space,1.39616374939,f,1,1.64017732983,SPR,43,A,,f,58.8496329728,001,2017_01_23_1108,
小劉愛慕欽佩領隊的組長,小劉討厭組長？,的,領隊,組長,小劉,欽佩,j,愛慕,11,1,6,0,21,21,5,space,0.391631821578,space,0.524127452925,space,0.500523613067,space,0.491498836142,space,0.952473771002,space,0.750366608088,space,1.84697589243,j,1,2.36270856205,SPR,43,A,,f,58.8496329728,001,2017_01_23_1108,
敵人搜查戰士掩護的村民,戰士沒掩護村民？,的,掩護,村民,敵人,戰士,j,搜查,11,2,40,0,22,22,15,space,0.579622548597,space,0.506651445816,space,0.577000338293,space,1.0005036791,space,1.01325749728,space,1.27699548309,space,1.31731507462,j,1,1.8902713749,SPR,43,A,,f,58.8496329728,001,2017_01_23_1108,
司機們大部分都比較好說話,司機討厭說話？,好,比較,說話,司機們,都,j,大部分,12,3,2,0,23,23,17,space,0.45024017524,space,0.536908507638,space,0.523709036119,space,0.580139253871,space,0.406559828261,space,0.354217463813,space,0.496768914338,j,1,2.56787687814,SPR,43,A,,f,58.8496329728,001,2017_01_23_1108,
贊助商支持貴族拉攏的青年,貴族排斥青年？,的,拉攏,青年,贊助商,貴族,j,支持,12,2,54,0,0,0,13,space,1.29568174109,space,0.870749467402,space,0.917014919745,space,0.810424420692,space,0.667327054718,space,0.510083253088,space,0.789284108614,j,1,0.979194816027,SPR,43,A,,f,58.8496329728,001,2017_01_23_1108,
外婆批評辱罵農夫的木匠,外婆批評木匠？,的,農夫,木匠,外婆,辱罵,f,批評,11,1,19,0,1,1,2,space,0.696611100168,space,0.570063698047,space,0.384850706148,space,0.503876473871,space,0.423821890203,space,0.409926899418,space,0.580288068159,f,1,1.77046798344,SPR,43,A,,f,58.8496329728,001,2017_01_23_1108,
同伴欺負取笑小郭的廚師,同伴關心廚師？,的,小郭,廚師,同伴,取笑,j,欺負,11,1,22,0,2,2,5,space,0.833671816741,space,0.55690725235,space,0.526877951401,space,0.445757983776,space,0.62711719895,space,0.430503533105,space,0.990169573284,j,1,1.75884152227,SPR,43,A,,f,58.8496329728,001,2017_01_23_1108,
小王關注航海家資助的演員,小王關注演員？,的,資助,演員,小王,航海家,f,關注,12,2,51,0,3,3,10,space,1.00070736127,space,0.560998263594,space,0.580073728226,space,1.3934803555,space,0.527042160218,space,0.560310244269,space,0.520421306253,f,1,1.2838551504,SPR,43,A,,f,58.8496329728,001,2017_01_23_1108,
阿姨看見交警驅趕的行政人員,交警驅趕行政人員？,的,驅趕,行政人員,阿姨,交警,f,看見,13,2,53,0,4,4,12,space,0.424741617753,space,0.530629492307,space,0.458232725796,space,0.470720099285,space,0.514147027687,space,0.554052544467,space,0.731327853631,f,1,2.64465754753,SPR,43,A,,f,58.8496329728,001,2017_01_23_1108,
夏天是個非常美麗的季節,夏天是個好季節？,的,美麗,季節,夏天,非常,f,是個,11,3,23,0,5,5,22,space,0.487308352254,space,0.497289566963,space,0.393032333755,space,0.376834866242,space,0.299723805394,space,0.390823014022,space,0.410331500578,f,1,1.22341444698,SPR,43,A,,f,58.8496329728,001,2017_01_23_1108,
許多古生物學家著迷於恐龍,學者討厭恐龍？,於,著迷,恐龍,許多,生物學家,j,古,12,3,22,0,6,6,21,space,0.740343157027,space,0.53586601821,space,0.513920845813,space,1.33966958494,space,0.456872081675,space,0.527367025381,space,0.421552965825,j,1,1.24410318473,SPR,43,A,,f,58.8496329728,001,2017_01_23_1108,
老闆責罵同情雇主的技工,技工責罵老闆？,的,雇主,技工,老闆,同情,j,責罵,11,1,18,0,7,7,1,space,0.453430800757,space,0.445408250496,space,0.411106361134,space,0.400709887501,space,0.410584524332,space,0.631503865006,space,0.686263573356,j,1,2.73127535416,SPR,43,A,,f,58.8496329728,001,2017_01_23_1108,
主任指責嘲笑上司的會計,主任指責會計？,的,上司,會計,主任,嘲笑,f,指責,11,1,23,0,8,8,6,space,0.436687023088,space,0.532535657228,space,0.496855755511,space,0.460659148579,space,0.522886807623,space,0.534015510639,space,1.47683293209,f,1,1.80450027017,SPR,43,A,,f,58.8496329728,001,2017_01_23_1108,
小張欽佩隊長袒護的消防員,校長欽佩隊長？,的,袒護,消防員,小張,隊長,j,欽佩,12,2,52,0,9,9,11,space,0.439626598498,space,0.460885725217,space,0.437714907341,space,0.684018727683,space,0.511202320689,space,0.510035095678,space,1.21785976639,j,1,4.22067579051,SPR,43,A,,f,58.8496329728,001,2017_01_23_1108,
大腦裡的奧秘等著你們去解開,大腦里有奧妙？,你們,等著,去解開,大腦裡,奧秘,f,的,13,3,19,0,10,10,18,space,0.453936058795,space,0.386953053239,space,0.407349293935,space,0.461180590675,space,0.366958650528,space,0.430581690161,space,0.469991817197,f,1,1.26041749312,SPR,43,A,,f,58.8496329728,001,2017_01_23_1108,
如果天氣好的話我就去野餐,天氣好也不野餐？,就,我,去野餐,如果,的話,j,天氣好,12,3,24,0,11,11,23,space,0.397067687591,space,0.414159224951,space,0.390389202628,space,0.366756942065,space,0.417849582271,space,0.352679979405,space,0.630337429466,j,1,1.84761851752,SPR,43,A,,f,58.8496329728,001,2017_01_23_1108,
有人明年要在高雄舉辦演唱會,明年有演唱會？,舉辦,高雄,演唱會,有人,要在,f,明年,13,3,17,0,12,12,16,space,0.486263099709,space,0.54506171454,space,0.470324971713,space,0.387240023992,space,0.420146532706,space,0.479181197763,space,1.04711136478,f,1,1.52024367644,SPR,43,A,,f,58.8496329728,001,2017_01_23_1108,
青年佩服小謝督促的技術員,青年佩服小謝？,的,督促,技術員,青年,小謝,j,佩服,12,2,50,0,13,13,9,space,0.42682817555,space,0.544083566521,space,0.600386285572,space,0.560373401502,space,0.494059468096,space,0.427169224713,space,0.689338147466,j,1,2.60813528602,SPR,43,A,,f,58.8496329728,001,2017_01_23_1108,
妹妹的個性一向是冷冰冰的,妹妹個性熱情？,是,一向,冷冰冰的,妹妹,個性,j,的,11,3,20,0,14,14,19,space,0.53355762054,space,0.461511376838,space,0.394462845579,space,0.560819449602,space,0.5240189014,space,0.367195490224,space,0.481332491792,j,1,1.29378544452,SPR,43,A,,f,58.8496329728,001,2017_01_23_1108,
媽媽討厭小白忽視的企業家,小白忽視企業家？,的,忽視,企業家,媽媽,小白,f,討厭,12,2,55,0,15,15,14,space,0.513612954179,space,0.514927809243,space,0.526855056873,space,0.571460262872,space,0.440740929334,space,0.390358413453,space,0.790274887986,f,1,1.85593948589,SPR,43,A,,f,58.8496329728,001,2017_01_23_1108,
刑警緝拿政府輕視的逃亡者,政府重視逃亡者？,的,輕視,逃亡者,刑警,政府,j,緝拿,12,2,56,0,16,16,15,space,0.450365305529,space,0.544156197342,space,0.837135202717,space,0.74558481446,space,0.458209436561,space,0.513746768644,space,1.04711965413,j,1,2.38123574271,SPR,43,A,,f,58.8496329728,001,2017_01_23_1108,
治療師開導小崔照顧的飛行員,治療師開導飛行員？,的,照顧,飛行員,治療師,小崔,f,開導,13,2,49,0,17,17,8,space,0.503490425122,space,0.473833751923,space,0.42362610274,space,0.573650635371,space,0.501199000981,space,0.480081583373,space,1.51732620603,f,1,3.75072699919,SPR,43,A,,f,58.8496329728,001,2017_01_23_1108,
鄰居告發砍傷表弟的疑犯,鄰居告發疑犯？,的,表弟,疑犯,鄰居,砍傷,f,告發,11,1,21,0,18,18,4,space,0.526272431191,space,0.423024529882,space,0.533837880881,space,0.640174566652,space,0.443844318914,space,0.367273252632,space,0.462925309839,f,1,1.78121458506,SPR,43,A,,f,58.8496329728,001,2017_01_23_1108,
雨後有時會見到漂亮的彩虹,雨後可能現彩虹？,的,漂亮,彩虹,雨後,會見到,f,有時,12,3,21,0,19,19,20,space,0.460844278277,space,0.450365700235,space,0.381512845226,space,0.395049418556,space,0.450477804348,space,0.360269902507,space,0.733924011583,f,1,1.50041032478,SPR,43,A,,f,58.8496329728,001,2017_01_23_1108,
科學家協助熟識表姐的院士,科學家排斥院士？,的,表姐,院士,科學家 ,熟識,j,協助,12,1,24,0,20,20,7,space,0.464622661064,space,0.616792566725,space,1.33740184474,space,0.563689946837,space,0.636981572665,space,0.64053456299,space,0.650218938536,j,1,1.00665835361,SPR,43,A,,f,58.8496329728,001,2017_01_23_1108,
哥哥的體育特長是打羽毛球,哥哥不會打羽毛球？,是,特長,打羽毛球,哥哥,體育,j,的,12,3,18,0,21,21,17,space,0.640202197945,space,0.543921726057,space,0.510005490738,space,0.562477327534,space,0.387686861563,space,0.496766940632,space,0.477506346302,j,1,0.960436716676,SPR,43,A,,f,58.8496329728,001,2017_01_23_1108,
偵探跟蹤迷戀老婆的編輯,偵探跟蹤編輯？,的,老婆,編輯,偵探,迷戀,f,跟蹤,11,1,17,0,22,22,0,space,0.423400315514,space,0.536237067077,space,0.480340133363,space,0.580194911163,space,0.4797101398,space,0.474033486738,space,0.596688428312,f,1,1.79952426802,SPR,43,A,,f,58.8496329728,001,2017_01_23_1108,
妹妹迷戀結識表哥的中醫師,中醫師迷戀妹妹？,的,表哥,中醫師,妹妹,結識,j,迷戀,12,1,20,0,23,23,3,space,0.49719956785,space,0.637018677604,space,0.509984569857,space,0.493853417516,space,0.417783267156,space,0.587369970046,space,0.747869133425,j,1,1.36320474121,SPR,43,A,,f,58.8496329728,001,2017_01_23_1108,
孩子們快樂地享受著陽光,孩子們喜歡陽光？,著,享受,陽光,孩子們,的,f,快樂,11,3,31,0,0,0,22,space,1.09974069998,space,0.547458532383,space,0.499130995653,space,0.6005824678,space,0.549299961072,space,0.603542174678,space,0.367067991581,f,1,1.10012951185,SPR,43,A,,f,58.8496329728,001,2017_01_23_1108,
警衛攔住治療師責備的婦女,治療師沒責備婦女？,的,責備,婦女,警衛,治療師,j,攔住,12,2,62,0,1,1,13,space,0.415082505089,space,0.426832912373,space,0.433755342208,space,0.373427927145,space,0.470622205525,space,0.350193951977,space,0.713350930484,j,1,1.85116598161,SPR,43,A,,f,58.8496329728,001,2017_01_23_1108,
參加國際會議是令人高興的事,參會不值得高興？,的,令人高興,事,參加,是,j,國際會議,13,3,28,0,2,2,19,space,0.557172512868,space,0.420038375887,space,0.453906059149,space,0.650839063863,space,0.496800887689,space,0.43576808495,space,0.510355618782,j,1,1.10695996898,SPR,43,A,,f,58.8496329728,001,2017_01_23_1108,
鄰居尊敬信任市民的委員,委員尊敬鄰居？,的,市民,委員,鄰居,信任,j,尊敬,11,1,28,0,3,3,3,space,0.473570859875,space,0.653687061276,space,0.507201308617,space,0.923050779616,space,0.660189890186,space,0.780526565679,space,0.496695493988,j,1,2.5079813007,SPR,43,A,,f,58.8496329728,001,2017_01_23_1108,
他一邊寫作業一邊看著電視,他沒在看電視？,看著,一邊,電視,他,寫作業,j,一邊,12,3,26,0,4,4,17,space,0.46088375157,space,0.470245630422,space,0.393706932198,space,0.303964420396,space,0.437163860304,space,0.45437144913,space,0.512196652766,j,1,1.25693437055,SPR,43,A,,f,58.8496329728,001,2017_01_23_1108,
鄉村的風景迷人且空氣新鮮,鄉村的風景很好？,空氣,且,新鮮,鄉村的,迷人,f,風景,12,3,29,0,5,5,20,space,0.383972425538,space,0.459501791862,space,0.470087737252,space,0.567883588548,space,0.804225536122,space,0.33456332091,space,0.396695454489,f,1,3.82360139245,SPR,43,A,,f,58.8496329728,001,2017_01_23_1108,
法官偏袒代理商詆毀的律師,代理商詆毀律師？,的,詆毀,律師,法官,代理商,f,偏袒,12,2,61,0,6,6,12,space,0.493841180811,space,0.417557085282,space,0.446536396921,space,0.35140499234,space,0.447895856865,space,0.520570120541,space,1.43879726483,f,1,3.63019532565,SPR,43,A,,f,58.8496329728,001,2017_01_23_1108,
教授排斥小林支持的研究員,小林不支持研究員？,的,支持,研究員,教授,小林,j,排斥,12,2,64,0,7,7,15,space,0.489996877674,space,0.460462176881,space,0.380429303565,space,0.360445558617,space,0.400343970221,space,0.326873135578,space,0.931207933812,j,1,2.64479530929,SPR,43,A,,f,58.8496329728,001,2017_01_23_1108,
大叔喜歡親近孩子的阿姨,大叔喜歡阿姨？,的,孩子,阿姨,大叔,親近,f,喜歡,11,1,27,0,8,8,2,space,0.51719594415,space,0.407949682616,space,0.391723794339,space,0.367024570936,space,0.390239993634,space,0.338053548709,space,0.610496577865,f,1,1.63992035872,SPR,43,A,,f,58.8496329728,001,2017_01_23_1108,
店長錯怪熟悉顧客的職工,店長錯怪職工？,的,顧客,職工,店長,熟悉,f,錯怪,11,1,25,0,9,9,0,space,0.409009145573,space,0.413372522395,space,0.560138535453,space,0.493786707695,space,0.556933699467,space,0.503910026164,space,1.51431044715,f,1,1.25671134645,SPR,43,A,,f,58.8496329728,001,2017_01_23_1108,
今天爸爸買了一籃新鮮的水果,爸爸買了水果？,的,新鮮,各種水果,今天,買了,f,爸爸,13,3,27,0,10,10,18,space,0.423379789456,space,0.350190794095,space,0.323794614174,space,0.361292655289,space,0.30038458819,space,0.320682145713,space,0.550355476676,f,1,0.950482738554,SPR,43,A,,f,58.8496329728,001,2017_01_23_1108,
家長們準備了豐盛的晚餐,晚餐沒有東西吃？,的,豐盛,晚餐,家長們,了,j,準備,11,3,32,0,11,11,23,space,0.343927568116,space,0.490351347777,space,0.467298160307,space,0.400151735346,space,0.367951798369,space,0.433537844394,space,0.539472297474,j,1,1.38691042212,SPR,43,A,,f,58.8496329728,001,2017_01_23_1108,
海關扣留空服員侮辱的旅客,海關扣留空服員？,的,侮辱,旅客,海關,空服員,j,扣留,12,2,58,0,12,12,9,space,0.409979793592,space,0.41032873746,space,0.370600455732,space,0.393572328321,space,0.497887981939,space,0.594567133987,space,0.541636617621,j,1,1.77780054073,SPR,43,A,,f,58.8496329728,001,2017_01_23_1108,
外婆感激協助叔叔的警察,外婆感激警察？,的,叔叔,警察,外婆,協助,f,感激,11,1,31,0,13,13,6,space,0.369330600195,space,0.363506711845,space,0.360357927915,space,0.331701113028,space,0.367004439526,space,0.397146634175,space,0.630248219881,f,1,1.10681825987,SPR,43,A,,f,58.8496329728,001,2017_01_23_1108,
上司懲罰小明責罵的管理員,上司懲罰管理員？,的,責罵,管理員,上司,小明,f,懲罰,12,2,59,0,14,14,10,space,0.383561903378,space,0.477959894342,space,0.413697387499,space,0.371235975646,space,0.339864188223,space,0.344332958746,space,0.630242298881,f,1,1.14717219316,SPR,43,A,,f,58.8496329728,001,2017_01_23_1108,
導演無視業務員撞見的藝人,業務員撞見藝人？,的,撞見,藝人,導演,業務員,f,無視,12,2,63,0,15,15,14,space,0.406855877896,space,0.393501671148,space,0.540371893614,space,0.357346905803,space,0.48073644517,space,0.387144103937,space,0.460160206247,f,1,2.0063015151,SPR,43,A,,f,58.8496329728,001,2017_01_23_1108,
助手賄賂批評小吳的評論家,助手賄賂評論家？,的,小吳,評論家,助手,批評,f,賄賂,12,1,29,0,16,16,4,space,0.411089782428,space,0.740685390425,space,0.502369383874,space,0.447348362417,space,0.490226217487,space,0.45486052311,space,1.21671622538,f,1,7.20785249938,SPR,43,A,,f,58.8496329728,001,2017_01_23_1108,
律師帮助惹怒上尉的服務員,律師無視服務員？,的,上尉,服務員,律師,惹怒,j,幫助,12,1,30,0,17,17,5,space,0.407232453057,space,0.506517631293,space,0.730427862727,space,0.763778840657,space,0.483803519339,space,0.591288088239,space,0.917264785618,j,1,1.32210792071,SPR,43,A,,f,58.8496329728,001,2017_01_23_1108,
聖誕節是個令人快樂的節日,聖誕節讓人快樂？,的,快樂,節日,聖誕節,令人,f,是個,12,3,25,0,18,18,16,space,0.462770179845,space,0.456872476439,space,0.434154022427,space,0.319988600095,space,0.293658340524,space,0.400473047863,space,0.619948061067,f,1,0.969497414306,SPR,43,A,,f,58.8496329728,001,2017_01_23_1108,
群眾反感主播討好的發言人,群眾反感發言人？,的,討好,發言人,群眾,主播,f,反感,12,2,57,0,19,19,8,space,0.437048993073,space,0.395215601136,space,0.347044773342,space,0.401008305606,space,0.364143021172,space,0.338969328848,space,0.643596900394,f,1,1.13017933897,SPR,43,A,,f,58.8496329728,001,2017_01_23_1108,
朋友毆打碰見駕駛員的盜賊,朋友幫助盜賊？,的,駕駛員,盜賊,朋友,碰見,j,毆打,12,1,32,0,20,20,7,space,0.484020227683,space,0.373899632832,space,0.450102808187,space,0.360637004022,space,0.340278657677,space,0.436325842456,space,0.609542903316,j,1,1.32301580627,SPR,43,A,,f,58.8496329728,001,2017_01_23_1108,
弟弟花光了所有的零花錢,弟弟還有零花錢？,的,所有,零花錢,弟弟,光了,j,花,11,3,30,0,21,21,21,space,0.480365396303,space,0.539627822232,space,0.599051299097,space,0.350116189627,space,0.500495587068,space,0.323436986248,space,0.570539351087,j,1,1.12736528856,SPR,43,A,,f,58.8496329728,001,2017_01_23_1108,
小明認識大姑姑捧紅的明星,小明認識大姑姑？,的,捧紅,明星,小明,大姑姑,j,認識,12,2,60,0,22,22,11,space,0.387214761111,space,0.413676861383,space,0.527158606448,space,0.50694670598,space,0.680669024761,space,0.407086007181,space,0.664528004127,f,0,9.09219025017,SPR,43,A,,f,58.8496329728,001,2017_01_23_1108,
政府豁免檢舉犯人的同伴,同伴豁免政府？,的,犯人,同伴,政府,檢舉,j,豁免,11,1,26,0,23,23,1,space,0.663756301394,space,0.510217857023,space,0.490190691489,None,,space,0.0602062321268,space,1.24076137651,space,0.777424755041,j,1,2.73037141602,SPR,43,A,,f,58.8496329728,001,2017_01_23_1108,
李老師今天看上去很不舒服,老師今天不舒服？,很,上去,不舒服,李老師,看,f,今天,12,3,9,0,0,0,16,space,0.540477682021,space,0.67038031324,space,0.610249080404,space,0.48775479506,space,0.388250934833,space,0.363745130482,space,0.428202635318,f,1,1.00819504855,SPR,43,A,,f,58.8496329728,001,2017_01_23_1108,
為了進步就要不斷嚐試新方法,進步需要新方法？,嘗試,不斷,新方法,為了,就要,f,進步,13,3,15,0,1,1,22,space,0.451384111017,space,0.718203381344,space,0.597454209987,space,0.449996230309,space,0.486934540269,space,0.321767661022,space,0.773728476721,f,1,1.48955832951,SPR,43,A,,f,58.8496329728,001,2017_01_23_1108,
姐姐想要舞者羨慕的造型師,舞者討厭造型師？,的,羨慕,造型師,姐姐,舞者,j,想要,12,2,48,0,2,2,15,space,0.437668723636,space,0.406140621984,space,0.430166036473,space,0.356801385002,space,0.417285114352,space,0.436785311496,space,0.597312895639,j,1,2.96533614065,SPR,43,A,,f,58.8496329728,001,2017_01_23_1108,
鄰居的奶奶一個字也不認識,鄰居的奶奶識字？,也,一個字,不認識,鄰居,奶奶,j,的,12,3,10,0,3,3,17,space,0.407273899997,space,0.353607996367,space,0.393464960915,space,0.394055481302,space,0.411272938421,space,0.383759664546,space,0.346890038112,j,1,1.30405284051,SPR,43,A,,f,58.8496329728,001,2017_01_23_1108,
小林懷疑廣播員攔住的大叔,廣播員沒攔大叔？,的,攔住,大叔,小林,廣播員,j,懷疑,12,2,46,0,4,4,13,space,0.329940999276,space,0.550309292914,space,0.669063089765,space,0.694451516785,space,0.831380392599,space,0.431129579316,space,0.596809216542,j,1,1.58116911183,SPR,43,A,,f,58.8496329728,001,2017_01_23_1108,
舅舅斥責女婿讚賞的工程師,女婿讚賞工程師？,的,讚賞,工程師,舅舅,女婿,f,斥責,12,2,47,0,5,5,14,space,0.610315395519,space,2.0892565957,space,0.772550593887,space,0.790446596802,space,0.540044660098,space,0.393609038438,space,0.727395525028,f,1,3.0140307789,SPR,43,A,,f,58.8496329728,001,2017_01_23_1108,
心理師理解小金關心的助教,心理師理解助教？,的,關心,助教,心理師,小金,f,理解,12,2,41,0,6,6,8,space,0.507389596198,space,0.403986564896,space,0.470336813654,space,0.373957658594,space,0.393983639893,space,0.331040724996,space,0.330093760858,f,1,2.5470294577,SPR,43,A,,f,58.8496329728,001,2017_01_23_1108,
小郭嘲笑嫉妒哥哥的富商,小郭欣賞富商？,的,哥哥,富商,小郭,嫉妒,j,嘲笑,11,1,14,0,7,7,5,space,0.42723198724,space,0.494294334145,space,0.289972720027,space,0.440932374797,space,0.463981614972,space,0.560419585207,space,1.02619131358,j,1,4.13238944812,SPR,43,A,,f,58.8496329728,001,2017_01_23_1108,
經常跑步能夠提高身體素質,跑步不利於健康？,身體,提高,素質,經常,能夠,j,跑步,12,3,14,0,8,8,21,space,0.76688775653,space,0.500070065085,space,0.536987059517,space,0.443802871974,space,0.427159751125,space,0.327972861356,space,0.360792923544,j,1,1.19688721572,SPR,43,A,,f,58.8496329728,001,2017_01_23_1108,
爺爺羨慕拜訪總統的老人,爺爺羨慕老人？,的,總統,老人,爺爺,拜訪,f,羨慕,11,1,11,0,9,9,2,space,0.454611446708,space,0.414001726545,space,0.363171583682,space,0.357371774036,space,0.320348596491,space,0.397055845649,space,0.806836693897,f,1,1.03791843163,SPR,43,A,,f,58.8496329728,001,2017_01_23_1108,
叔叔推薦欣賞小王的村長,村長推薦叔叔？,的,小王,村長,叔叔,欣賞,j,推薦,11,1,12,0,10,10,3,space,0.363425396848,space,0.497008122446,space,0.647105285898,space,0.634739884874,space,0.462857021019,space,0.37719131005,space,0.552995449922,j,1,3.56751293439,SPR,43,A,,f,58.8496329728,001,2017_01_23_1108,
這個問題同學們一起討論過,問題沒有被討論？,一起,們,討論過,這個,同學,j,問題,12,3,16,0,11,11,23,space,0.385309385718,space,0.423925310257,space,0.450356621412,space,0.510497327894,space,0.363876181771,space,0.350378292205,space,0.480785786756,j,1,1.19727286976,SPR,43,A,,f,58.8496329728,001,2017_01_23_1108,
記者打壓邀請王總的政客,記者打壓政客？,的,王總,政客,記者,邀請,f,打壓,11,1,13,0,12,12,4,space,0.415792629472,space,0.383770322369,space,0.423890573788,space,0.539871372341,space,0.616882960545,space,0.783379694738,space,0.593926482601,f,1,1.27563523373,SPR,43,A,,f,58.8496329728,001,2017_01_23_1108,
室友鼓足勇氣參加了圍棋比賽,室友參加了比賽？,圍棋,參加了,比賽,室友,勇氣,f,鼓足,13,3,11,0,13,13,18,space,0.497392592195,space,0.628650736064,space,0.508953133016,space,0.423851889907,space,0.41327818128,space,0.336304487428,space,0.39114669495,f,1,1.10676062887,SPR,43,A,,f,58.8496329728,001,2017_01_23_1108,
院長刁難厭煩醫生的病人,病人刁難院長？,的,醫生,病人,院長,厭煩,j,刁難,11,1,10,0,14,14,1,space,0.407205611176,space,0.400655019679,space,0.450587934814,space,0.359278333606,space,0.399747528892,space,0.418050896027,space,0.527836757421,j,1,2.60322244104,SPR,43,A,,f,58.8496329728,001,2017_01_23_1108,
攝影師誣陷認識張三的司機,攝影師誣陷司機？,的,張三,司機,攝影師,認識,f,誣陷,12,1,9,0,15,15,0,space,0.387741334736,space,0.40410103742,space,0.400645546091,space,0.366717863537,space,0.280638867232,space,0.393432987621,space,0.793714590021,f,1,3.88777468965,SPR,43,A,,f,58.8496329728,001,2017_01_23_1108,
旅客結識科學家佩服的商人,科學家佩服商人？,的,佩服,商人,旅客,科學家,f,結識,12,2,45,0,16,16,12,space,0.393334699096,space,0.55720369675,space,0.483841413748,space,0.911630368966,space,0.70734980714,space,1.62997782783,space,0.83052303287,f,1,1.89365147217,SPR,43,A,,f,58.8496329728,001,2017_01_23_1108,
局長辭退老闆害怕的藥劑師,局長辭退藥劑師？,的,害怕,藥劑師,局長,老闆,f,辭退,12,2,43,0,17,17,10,space,0.427717508632,space,0.491024761985,space,0.480512236885,space,0.386655029957,space,0.429350123683,space,0.354287726281,space,1.09677270375,f,1,1.69319902943,SPR,43,A,,f,58.8496329728,001,2017_01_23_1108,
我們週末約了一起去打籃球,我們不想打籃球？,打,一起去,籃球,我們,約了,j,週末,12,3,12,0,18,18,19,space,0.380363777862,space,0.433938893024,space,0.41441106447,space,0.410464525572,space,0.323738562176,space,0.457232078072,space,0.310157778673,j,1,0.86139508849,SPR,43,A,,f,58.8496329728,001,2017_01_23_1108,
警察逮捕兇嫌唆使的槍手,警察逮捕兇嫌？,的,唆使,槍手,警察,兇嫌,j,逮捕,11,2,42,0,19,19,9,space,0.387563310214,space,0.429255387804,space,0.437239649007,space,0.57460273098,space,0.712924619031,space,0.707041125977,space,0.527648075134,j,1,1.34712214099,SPR,43,A,,f,58.8496329728,001,2017_01_23_1108,
教授同情欺瞞群眾的主席,教授批評主席？,的,群眾,主席,教授,欺瞞,j,同情,11,1,16,0,20,20,7,space,0.389804603299,space,0.393819431018,space,0.696708599105,space,0.730168523267,space,0.53404669452,space,0.370439010032,space,0.560275902448,j,1,1.57226433366,SPR,43,A,,f,58.8496329728,001,2017_01_23_1108,
明星資助在地人尊敬的導遊,明星資助在地人？,的,尊敬,導遊,明星,在地人,j,資助,12,2,44,0,21,21,11,space,0.446831262379,space,0.47843554744,space,0.803468043858,space,1.3957480957,space,0.559454858187,space,0.548257866292,space,0.62355868239,j,1,1.61171274976,SPR,43,A,,f,58.8496329728,001,2017_01_23_1108,
王總讚賞維護隊員的教練,王總讚賞教練？,的,隊員,教練,王總,維護,f,讚賞,11,1,15,0,22,22,6,space,0.447066523193,space,0.577268361871,space,0.466888032854,space,0.480776313227,space,0.533815381117,space,0.570087382046,space,1.36041871679,f,1,1.33150216768,SPR,43,A,,f,58.8496329728,001,2017_01_23_1108,
新發芽的種子需要很多肥料,種子需要肥料？,很多,需要,肥料,新發芽,種子,f,的,12,3,13,0,23,23,20,space,0.413202392519,space,0.453612377867,space,0.490180428431,space,0.319587551523,space,0.373953711241,space,0.342390873178,space,0.32023728179,f,1,1.50357016124,SPR,43,A,,f,58.8496329728,001,2017_01_23_1108,
