Sentences,Question,word5,word4,word6,word1,word3,Ans,word2,lenth,Type,ID,practicetrials.thisRepN,practicetrials.thisTrialN,practicetrials.thisN,practicetrials.thisIndex,key_resp_12.keys,key_resp_12.rt,Atests1.keys,Atests1.rt,Atests2.keys,Atests2.rt,Atests3.keys,Atests3.rt,Atests4.keys,Atests4.rt,Atests5.keys,Atests5.rt,Atests6.keys,Atests6.rt,key_resp_8.keys,key_resp_8.corr,key_resp_8.rt,expName,participant,version,Grade,Gender,frameRate,session,date,
誣陷主人的管家怒斥了園丁,主人誇獎了園丁？,怒斥了,管家,園丁,誣陷,的,j,主人,12,1,34,0,0,0,9,space,0.501518513869,space,0.6840437231,space,0.483738441413,space,0.451104011292,space,0.435215074773,space,1.01736245154,space,0.767576196078,j,1,0.867536407619,SPR,ao,B,,female,59.6641153056,001,2016_04_26_1026,
工人表揚的廠長漲了薪水,廠長上調了薪水？,漲了,廠長,薪水,工人,的,f,表揚,11,2,3,0,1,1,2,space,0.43399931633,space,0.634463672897,space,0.567236573166,space,0.466835846557,space,0.584274954032,space,0.734157049155,space,1.10070900822,f,1,0.950056011723,SPR,ao,B,,female,59.6641153056,001,2016_04_26_1026,
留學的生活能夠磨礪人的意志,留學生活能鍛鍊人?,人的,磨礪,意志,留學的,能夠,f,生活,13,3,37,0,2,2,20,space,0.400558459434,space,0.6339548701,space,0.434082208958,space,0.500976159296,space,0.517195087392,space,0.50048985592,space,0.467374648601,f,1,0.934066025162,SPR,ao,B,,female,59.6641153056,001,2016_04_26_1026,
手機是個既方便又重要的發明,手機是個不好的發明?,的,又重要,發明,手機,既方便,j,是個,13,3,36,0,3,3,19,space,0.434807716745,space,0.600582300925,space,0.533449935625,space,0.451011645229,space,0.41730316358,space,0.450713626524,space,0.483910937015,j,1,0.917757888812,SPR,ao,B,,female,59.6641153056,001,2016_04_26_1026,
聽說吃黑巧克力可以提高智商,巧克力不能提高智商?,提高,可以,智商,聽說,黑巧克力,j,吃,13,3,40,0,4,4,23,space,0.400513855304,space,0.500601563588,space,0.450618102645,space,0.450736520674,space,0.38384928069,space,0.350516184197,space,0.367322860446,j,1,2.83421120566,SPR,ao,B,,female,59.6641153056,001,2016_04_26_1026,
領隊欽佩的組長煮了美食,組長討厭領隊？,煮了,組長,美食,領隊,的,j,欽佩,11,2,6,0,5,5,5,space,0.40004215682,space,0.83481119034,space,0.717619971278,space,0.51757007782,space,0.73420678472,space,0.683840044083,space,0.467200179366,j,1,1.13413447078,SPR,ao,B,,female,59.6641153056,001,2016_04_26_1026,
徐總賞識的詩人獲得了好評,徐總獲得了好評？,獲得了,詩人,好評,徐總,的,j,賞識,12,2,8,0,6,6,7,space,0.367324834078,space,0.500669456596,space,0.550378977168,space,0.467461488479,space,0.383882437738,space,0.384080590571,space,0.500413673653,j,1,1.1341569702,SPR,ao,B,,female,59.6641153056,001,2016_04_26_1026,
小張崇拜的作家寫了首詩,作家會寫詩歌？,寫了,作家,詩歌,小張,的,f,崇拜,11,2,1,0,7,7,0,space,0.634150654572,space,0.66712454972,space,0.433646430603,space,0.417199745163,space,0.58400338202,space,0.483915279008,space,0.417453159745,f,1,1.00247730518,SPR,ao,B,,female,59.6641153056,001,2016_04_26_1026,
招待船長的賓客接受了訪問,賓客接受了訪問？,接受了,賓客,訪問,招待,的,f,船長,12,1,37,0,8,8,12,space,0.484081458977,space,0.534040052138,space,0.450572709065,space,0.484115010746,space,0.467148075433,space,1.28459089334,space,1.03408465626,f,1,1.20078763779,SPR,ao,B,,female,59.6641153056,001,2016_04_26_1026,
賄賂小陳的企劃員擅長宣傳,小陳不懂宣傳？,擅長,企劃員,宣傳,賄賂,的,j,小陳,12,1,36,0,9,9,11,space,0.400609379183,space,0.533824531318,space,0.717117484106,space,0.433917213166,space,0.434007605596,space,0.550965935865,space,0.483651996248,j,1,1.00065445698,SPR,ao,B,,female,59.6641153056,001,2016_04_26_1026,
善待動物們是對生命的尊重,應該善待動物?,的,生命,尊重,善待,是對,f,動物們,12,3,35,0,10,10,18,space,0.417226586578,space,0.584166798901,space,0.584001408388,space,0.583631549402,space,1.16738270102,space,0.818161220617,space,0.71537476543,f,1,0.668429121681,SPR,ao,B,,female,59.6641153056,001,2016_04_26_1026,
和朋友們一起喝下午茶很開心,喝下午茶很開心?,下午茶,喝,很開心,和,一起,f,朋友們,13,3,39,0,11,11,22,space,0.384020986836,space,0.617129641694,space,0.500780769544,space,0.567234599534,space,0.567216836833,space,0.533933081184,space,0.500524197145,f,1,1.81703545988,SPR,ao,B,,female,59.6641153056,001,2016_04_26_1026,
小周羞辱的導演做了壞事,導演做了不好的事？,做了,導演,壞事,小周,的,f,羞辱,11,2,5,0,12,12,4,space,0.384183614267,space,0.583334714873,space,0.617685022255,space,0.901238178922,space,0.467407805641,space,0.534093734976,space,1.00204192156,f,1,0.717904569276,SPR,ao,B,,female,59.6641153056,001,2016_04_26_1026,
爺爺一句話就把大家逗開心了,爺爺把大家逗開心了?,逗,大家,開心了,爺爺,就把,f,一句話,12,3,33,0,13,13,16,space,0.400567538141,space,0.533967422409,space,0.534353859912,space,0.683841228267,space,0.467192284828,space,0.500577090534,space,0.3169383571,f,1,0.767150680629,SPR,ao,B,,female,59.6641153056,001,2016_04_26_1026,
指使搶匪的殺手發生了不測,殺手遭遇不測了？,發生了,殺手,不測,指使,的,f,搶匪,12,1,35,0,14,14,10,space,1.88443229212,space,0.683773729987,space,0.667248493926,space,0.567148549104,space,0.484043565208,space,0.533809136978,space,0.517212060637,f,1,0.8506740749,SPR,ao,B,,female,59.6641153056,001,2016_04_26_1026,
阿姨親手製作了一個生日蛋糕,阿姨沒做蛋糕?,生日,一個,蛋糕,阿姨,製作了,j,親手,13,3,38,0,15,15,21,space,0.366727217755,space,0.467946607678,space,0.451071643693,space,0.351012750463,space,0.417125141808,space,0.533533617694,space,0.350636575851,j,1,0.750819650129,SPR,ao,B,,female,59.6641153056,001,2016_04_26_1026,
襲擊刺客的鐵匠鑄造了寶劍,鐵匠救了刺客？,鑄造了,鐵匠,寶劍,襲擊,的,f,刺客,12,1,39,0,16,16,14,space,0.450513105323,space,0.500657614793,space,0.550639102112,space,0.384008355577,space,0.467341491545,space,0.601072551566,space,0.467298071606,j,0,1.86708760329,SPR,ao,B,,female,59.6641153056,001,2016_04_26_1026,
弟弟傷害的同學打了老師,同學推開了老師？,打了,同學,老師,弟弟,的,j,傷害,11,2,4,0,17,17,3,space,0.467363201518,space,0.833975159054,space,0.917365530404,space,0.533988342933,space,0.483854491082,space,0.483970935478,space,0.450933094609,j,1,1.53474345523,SPR,ao,B,,female,59.6641153056,001,2016_04_26_1026,
掩護戰士的村民躲進了樹洞,村民跑出了樹洞？,躲進了,村民,樹洞,掩護,的,j,戰士,12,1,40,0,18,18,15,space,0.350524473455,space,0.53399939528,space,0.717490500901,space,0.617173061633,space,1.31755373613,space,0.917726310669,space,0.567251572786,j,1,0.900552538529,SPR,ao,B,,female,59.6641153056,001,2016_04_26_1026,
房東厭惡的小孩吃了蘋果,房東扔掉蘋果？,吃了,小孩,蘋果,房東,的,j,厭惡,11,2,2,0,19,19,1,space,0.40097213308,space,0.517371135524,space,0.551595525067,space,0.533884924516,space,0.400495303147,space,0.584042065246,space,0.817449922986,j,1,0.985187483369,SPR,ao,B,,female,59.6641153056,001,2016_04_26_1026,
小潘舉薦的水手開啟了旅程,水手開啟了旅程？,開啟了,水手,旅程,小潘,的,f,舉薦,12,2,7,0,20,20,6,space,0.350639338947,space,0.550515552633,space,0.450668232945,space,0.684332268364,space,0.400877003929,space,1.00063511536,space,0.583954435897,f,1,0.634152628212,SPR,ao,B,,female,59.6641153056,001,2016_04_26_1026,
愛慕局長的學生考上了大學,學生考上了大學？,考上了,學生,大學,愛慕,的,f,局長,12,1,33,0,21,21,8,space,0.416930541505,space,0.500912608288,space,0.650783256322,space,0.483565156363,space,0.434437068317,space,0.48474459994,space,0.350400529249,f,1,0.667618747626,SPR,ao,B,,female,59.6641153056,001,2016_04_26_1026,
救治嬸嬸的鄰居染上了毒癮,嬸嬸染上了毒癮？,染上了,鄰居,毒癮,救治,的,j,嬸嬸,12,1,38,0,22,22,13,space,0.400543459815,space,0.450837176002,space,0.450720336878,space,0.484040802112,space,0.366983395426,space,0.417372240765,space,0.516872595625,j,1,0.833571353571,SPR,ao,B,,female,59.6641153056,001,2016_04_26_1026,
每年都會頒布新的法規制度,每年不會有新制度?,法規,的,制度,每年,新,j,都會頒布,12,3,34,0,23,23,17,space,0.384136641776,space,0.484162772686,space,0.734010210792,space,0.550868043632,space,0.367809558542,space,0.501100498223,space,0.567069998477,j,1,1.53456543346,SPR,ao,B,,female,59.6641153056,001,2016_04_26_1026,
熱鬧的夜市有很多美味的食物,夜市裡有很多美食?,的,美味,食物,熱鬧的,有很多,f,夜市,13,3,61,0,0,0,20,space,0.601250178617,space,0.834495408933,space,0.417361977867,space,0.550690811317,space,0.66725520428,space,0.584079564287,space,0.417382898384,f,1,0.6505779984,SPR,ao,B,,female,59.6641153056,001,2016_04_26_1026,
討好主播的發言人處理了糾紛,發言人擺平了糾紛？,處理了,發言人,糾紛,討好,的,f,主播,13,1,57,0,1,1,8,space,0.367862451931,space,0.48383001802,space,0.667688219539,space,0.750879253872,space,0.384011118666,space,0.467121628739,space,0.433854056879,f,1,1.05049265848,SPR,ao,B,,female,59.6641153056,001,2016_04_26_1026,
上尉惹怒的服務員扔了盤子,盤子是上尉扔的？,扔了,服務員,盤子,上尉,的,j,惹怒,12,2,30,0,2,2,5,space,0.950915726629,space,0.367166548647,space,0.46740070056,space,0.383765203886,space,0.400544643991,space,0.400574643223,space,0.383925857677,j,1,0.950562051446,SPR,ao,B,,female,59.6641153056,001,2016_04_26_1026,
朋友們推薦了許多好聽的歌曲,朋友們推薦了歌曲?,的,好聽,歌曲,朋友們,許多,f,推薦了,13,3,57,0,3,3,16,space,0.333688982151,space,0.533799663535,space,0.467421621084,space,0.517289427087,space,0.317259269963,space,0.334038710069,space,0.417466975188,f,1,0.684159378041,SPR,ao,B,,female,59.6641153056,001,2016_04_26_1026,
責罵小明的管理員掄起了拳頭,管理員握起了拳頭？,掄起了,管理員,拳頭,責罵,的,f,小明,13,1,59,0,4,4,10,space,0.350602629354,space,0.500573932717,space,0.667338491621,space,0.350683548335,space,0.367275887955,space,0.367104576544,space,0.550631602295,f,1,0.717760494008,SPR,ao,B,,female,59.6641153056,001,2016_04_26_1026,
駕駛員碰見的盜賊撕了名畫,駕駛員毀壞了名畫？,撕了,盜賊,名畫,駕駛員,的,j,碰見,12,2,32,0,5,5,7,space,0.383926647133,space,0.434127207802,space,0.41717803519,space,0.71725721738,space,0.483811071135,space,0.750466764403,space,0.617614366158,j,1,0.784413661015,SPR,ao,B,,female,59.6641153056,001,2016_04_26_1026,
我今天學會了一個新的技能,我今天沒學新技能?,新的,一個,技能,我,學會了,j,今天,12,3,60,0,6,6,19,space,0.667264282987,space,0.58378233503,space,0.367173653729,space,0.383875332656,space,0.367613379341,space,0.367239573097,space,0.467402674192,j,1,0.984715784885,SPR,ao,B,,female,59.6641153056,001,2016_04_26_1026,
隔壁的大伯擅長修理各種電器,大伯不會修理電器?,各種,修理,電器,隔壁的,擅長,j,大伯,13,3,64,0,7,7,23,space,0.417461054283,space,0.51710311605,space,0.533986764021,space,0.63391894997,space,0.467373069681,space,0.317271111766,space,0.550754757052,j,1,0.866850767234,SPR,ao,B,,female,59.6641153056,001,2016_04_26_1026,
詆毀代理商的律師吃上了官司,律師碰上了官司？,吃上了,律師,官司,詆毀,的,f,代理商,13,1,61,0,8,8,12,space,0.384047828258,space,0.517598103412,space,0.317059538211,space,0.46733004447,space,0.333953449088,space,0.40068792981,space,0.467277151081,f,1,1.11731121601,SPR,ao,B,,female,59.6641153056,001,2016_04_26_1026,
捧紅大姑姑的明星拍攝了新片,大姑姑拍攝了新片？,拍攝了,明星,新片,捧紅,的,j,大姑姑,13,1,60,0,9,9,11,space,0.417283821967,space,0.500946554792,space,0.550447659625,space,0.383807439655,space,0.283874858986,space,0.600719271111,space,1.60070387677,f,0,2.41775196791,SPR,ao,B,,female,59.6641153056,001,2016_04_26_1026,
犯人檢舉的同伴知道了敵情,犯人知道了敵情？,知道了,同伴,敵情,犯人,的,j,檢舉,12,2,26,0,10,10,1,space,0.400473198453,space,0.534085050982,space,0.517428370906,space,0.80013444394,space,0.78354407796,space,0.56735301757,space,0.617348320324,f,0,1.01757599872,SPR,ao,B,,female,59.6641153056,001,2016_04_26_1026,
每個人都應該要遵守交通規則,交通規則人人遵守?,交通,遵守,規則,每個人,要,f,都應該,13,3,63,0,11,11,22,space,0.367206021321,space,0.950422318165,space,0.467476882826,space,0.451006513787,space,0.417285006144,space,0.567141049294,space,0.483966593485,f,1,0.933781032429,SPR,ao,B,,female,59.6641153056,001,2016_04_26_1026,
小吳批評的評論家說了粗話,評論家說了粗話？,說了,評論家,粗話,小吳,的,f,批評,12,2,29,0,12,12,4,space,0.384205324233,space,0.483921594634,space,0.400850951963,space,0.867541933796,space,1.08418495633,space,0.617089379564,space,0.317145983383,f,1,0.617759625609,SPR,ao,B,,female,59.6641153056,001,2016_04_26_1026,
市民信任的委員爭到了選票,委員放棄了選票？,爭到了,委員,選票,市民,的,j,信任,12,2,28,0,13,13,3,space,0.366767874613,space,0.351326952965,space,0.567617484499,space,0.43419510081,space,0.7674526466,space,0.600500987217,space,0.317215060561,j,1,0.85123498163,SPR,ao,B,,female,59.6641153056,001,2016_04_26_1026,
支持小林的研究員分析了案例,小林不懂分析案例？,分析了,研究員,案例,支持,的,j,小林,13,1,64,0,14,14,15,space,0.417409345078,space,0.767296729529,space,0.349783571313,space,0.333521223278,space,0.433771558994,space,0.317290058651,space,0.334042262606,j,1,1.23416849623,SPR,ao,B,,female,59.6641153056,001,2016_04_26_1026,
撞見業務員的藝人衝進了現場,藝人闖進了現場？,衝進了,藝人,現場,撞見,的,f,業務員,13,1,63,0,15,15,14,space,0.367575485572,space,0.517734678877,space,0.634213021403,space,0.418223666391,space,0.300522855076,space,0.417450001929,space,0.267734481517,f,1,0.483561998553,SPR,ao,B,,female,59.6641153056,001,2016_04_26_1026,
叔叔協助的警察破了大案件,警察偵破了大案件？,破了,警察,大案件,叔叔,的,f,協助,12,2,31,0,16,16,6,space,0.400627141891,space,0.367331149704,space,0.383734415205,space,0.367426278855,space,0.517193903208,space,0.40074358628,space,0.433666561672,f,1,0.784176430236,SPR,ao,B,,female,59.6641153056,001,2016_04_26_1026,
侮辱空服員的旅客拿出了凶器,空服員把凶器藏了起來？,拿出了,旅客,凶器,侮辱,的,j,空服員,13,1,58,0,17,17,9,space,1.66781176902,space,0.766757927493,space,0.617516473918,space,0.317586498444,space,0.333791611105,space,0.417223034048,space,0.26650214455,j,1,1.10143333184,SPR,ao,B,,female,59.6641153056,001,2016_04_26_1026,
童年的回憶總是美好而快樂的,童年的回憶很痛苦?,而,美好,快樂的,童年的,總是,j,回憶,13,3,62,0,18,18,21,space,0.416645943507,space,0.400694245436,space,0.31749886911,space,0.283908410762,space,0.367515487102,space,0.801163101889,space,0.367165759184,j,1,0.750946357424,SPR,ao,B,,female,59.6641153056,001,2016_04_26_1026,
小明昨天吃了一碗美味的小米粥,小明昨天沒吃小米粥?,的,美味,小米粥,小明,吃了一碗,j,昨天,12,3,58,0,19,19,17,space,0.367712455758,space,0.317641760194,space,0.4683022565,space,0.284069854009,space,0.261424379431,space,0.316890595161,space,0.333118601971,j,1,0.701143681334,SPR,ao,B,,female,59.6641153056,001,2016_04_26_1026,
顧客熟悉的職工推薦了商品,職工推薦了商品？,推薦了,職工,商品,顧客,的,f,熟悉,12,2,25,0,20,20,0,space,0.384139404865,space,0.383963751454,space,0.300629036574,space,0.26696476432,space,0.400797269125,space,0.250443080797,space,0.283488816211,f,1,0.633398305356,SPR,ao,B,,female,59.6641153056,001,2016_04_26_1026,
媽媽的拿手菜是糖醋排骨,媽媽會煮糖醋排骨?,糖醋,是,排骨,媽媽,拿手菜,f,的,11,3,59,0,21,21,18,space,0.417216718415,space,0.300576932641,space,0.283940778354,space,0.333045182793,space,0.334232915637,space,0.434116155455,space,0.417291716505,f,1,0.901382254189,SPR,ao,B,,female,59.6641153056,001,2016_04_26_1026,
責備治療師的婦女察覺了動靜,治療師察覺了動靜？,察覺了,婦女,動靜,責備,的,j,治療師,13,1,62,0,22,22,13,space,0.384217955492,space,0.300515355266,space,0.383949936018,space,0.334273177759,space,0.300704034657,space,0.334035552245,space,0.317379266897,j,1,0.967763454457,SPR,ao,B,,female,59.6641153056,001,2016_04_26_1026,
孩子親近的阿姨迷失了方向,阿姨迷路了？,迷失了,阿姨,方向,孩子,的,f,親近,12,2,27,0,23,23,2,space,0.350668154002,space,0.300437199367,space,0.284249059958,space,0.550571603831,space,0.317224139275,space,0.284127089384,space,0.300487329667,f,1,0.850571840667,SPR,ao,B,,female,59.6641153056,001,2016_04_26_1026,
校園門口的那棵樹長滿了新葉,樹長滿了新葉?,長滿了,樹,新葉,校園門口,那棵,f,的,13,3,49,0,0,0,16,space,0.684350820513,space,0.650719705314,space,0.76727620374,space,0.300527197069,space,0.350158956469,space,0.400519776209,space,0.300594695342,f,1,0.650667206653,SPR,ao,B,,female,59.6641153056,001,2016_04_26_1026,
親近大自然的最好方式是旅遊,旅遊能夠親近大自然?,是,最好方式,旅遊,親近,的,f,大自然,13,3,55,0,1,1,22,space,0.36778705912,space,0.351043539158,space,0.283711047377,space,0.300665746166,space,0.484130010365,space,0.367462988448,space,0.417273953797,f,1,0.801116918861,SPR,ao,B,,female,59.6641153056,001,2016_04_26_1026,
小郭取笑的廚師偷聽了對話,小郭表揚了廚師？,偷聽了,廚師,對話,小郭,的,j,取笑,12,2,22,0,2,2,5,space,0.350846175774,space,0.334057262226,space,0.283654996172,space,0.284168930426,space,0.334050551864,space,0.333869767011,space,0.300773506577,j,1,1.08377996667,SPR,ao,B,,female,59.6641153056,001,2016_04_26_1026,
上司嘲笑的會計偽造了帳目,會計偽造了帳目？,偽造了,會計,帳目,上司,的,f,嘲笑,12,2,23,0,3,3,6,space,0.367228126022,space,0.333959764706,space,1.18405674907,space,0.500920502818,space,0.383948751834,space,0.317334268046,space,0.317261243596,f,1,0.6173495045,SPR,ao,B,,female,59.6641153056,001,2016_04_26_1026,
老婆迷戀的編輯出版了新書,編輯出版了新書？,出版了,編輯,新書,老婆,的,f,迷戀,12,2,17,0,4,4,0,space,0.433915634254,space,0.450444422866,space,0.50070892927,space,0.350212244579,space,0.284091563975,space,0.300359043467,space,0.350904595332,f,1,0.534264256938,SPR,ao,B,,female,59.6641153056,001,2016_04_26_1026,
照顧小崔的飛行員擊落了敵機,飛行員打落了敵機？,擊落了,飛行員,敵機,照顧,的,f,小崔,13,1,49,0,5,5,8,space,0.367238783641,space,0.400462146099,space,0.300593511165,space,0.284123536847,space,0.55077567757,space,0.317151114825,space,1.50107247262,f,1,0.66819583816,SPR,ao,B,,female,59.6641153056,001,2016_04_26_1026,
袒護隊長的消防員聲援了遊行,隊長聲援了遊行？,聲援了,消防員,遊行,袒護,的,j,隊長,13,1,52,0,6,6,11,space,1.00092129227,space,0.567309202896,space,0.417485132617,space,0.334078577464,space,0.33417212771,space,0.317644918017,space,0.75079162453,j,1,1.10081755808,SPR,ao,B,,female,59.6641153056,001,2016_04_26_1026,
資助航海家的演員擔任了主角,演員當上了主角？,擔任了,演員,主角,資助,的,f,航海家,13,1,51,0,7,7,10,space,0.750182166397,space,0.434202205892,space,0.401113050539,space,0.300546143953,space,0.300499171462,space,0.70096842265,space,0.350496447849,f,1,0.817427423557,SPR,ao,B,,female,59.6641153056,001,2016_04_26_1026,
表哥結識的中醫師開了偏方,中醫生開錯了偏方？,開了,中醫師,偏方,表哥,的,j,結識,12,2,20,0,8,8,3,space,1.30097086995,space,0.733670745773,space,0.651271928058,space,0.467324518293,space,0.417651312586,space,0.333799110922,space,0.267313308053,f,0,1.26729594008,SPR,ao,B,,female,59.6641153056,001,2016_04_26_1026,
輕視政府的逃亡者認清了事實,政府認清了事實？,認清了,逃亡者,事實,輕視,的,j,政府,13,1,56,0,9,9,15,space,0.56714933856,space,0.500989185282,space,0.600718481655,space,0.334093577083,space,0.41744921248,space,0.283834596856,space,0.434153259775,j,1,0.733967975029,SPR,ao,B,,female,59.6641153056,001,2016_04_26_1026,
每個人的相處方式都不一樣,相處方式都一樣的?,都,方式,不一樣,每個人,相處,j,的,12,3,50,0,10,10,17,space,1.9846127612,space,0.467033999397,space,0.434168654116,space,0.384246375812,space,0.450788229879,space,0.317973330675,space,0.384337162977,j,1,0.917966699271,SPR,ao,B,,female,59.6641153056,001,2016_04_26_1026,
督促小謝的技術員趕上了進度,技術員落下了進度？,趕上了,技術員,進度,督促,的,j,小謝,13,1,50,0,11,11,9,space,0.367630352594,space,0.550631997023,space,0.383956646372,space,0.450518236772,space,0.350909332054,space,0.333816084167,space,0.500324860135,j,1,0.734283756436,SPR,ao,B,,female,59.6641153056,001,2016_04_26_1026,
雇主同情的技工拿到了專利,雇主毆打了技工？,拿到了,技工,專利,雇主,的,j,同情,12,2,18,0,12,12,1,space,0.367064709135,space,0.450809150396,space,0.534196758665,space,0.351066038573,space,0.300488119123,space,0.334206863663,space,0.300449830618,j,1,0.800837452305,SPR,ao,B,,female,59.6641153056,001,2016_04_26_1026,
忽視小白的企業家投資了廣告,企業家投資了廣告？,投資了,企業家,廣告,忽視,的,f,小白,13,1,55,0,13,13,14,space,1.01799401436,space,0.384210455675,space,0.450549814916,space,0.367183127164,space,0.800726139365,space,0.550502526647,space,0.317188613866,f,1,0.700448567499,SPR,ao,B,,female,59.6641153056,001,2016_04_26_1026,
農夫辱罵的木匠造出了新房,木匠造出了新房？,造出了,木匠,新房,農夫,的,f,辱罵,12,2,19,0,14,14,2,space,0.400697008517,space,0.500796558612,space,0.350090274012,space,0.317422292115,space,0.700645930883,space,0.433882871941,space,0.317578209186,f,1,0.617193192702,SPR,ao,B,,female,59.6641153056,001,2016_04_26_1026,
音樂可以讓人身心得到放鬆,音樂會讓人放鬆?,得到,身心,放鬆,音樂,讓人,f,可以,12,3,51,0,15,15,18,space,0.40028609796,space,0.450754678102,space,0.367546275796,space,0.300644036193,space,0.267447909879,space,0.283846438659,space,0.283979461579,f,1,0.650584314033,SPR,ao,B,,female,59.6641153056,001,2016_04_26_1026,
每週都有寫不完的作業和報告,每週都有作業?,作業和,的,報告,每週,寫不完,f,都有,13,3,53,0,16,16,20,space,0.334030815531,space,0.3506239446,space,0.300369701094,space,0.267317650047,space,0.684102932108,space,0.300844162666,space,0.334253046698,f,1,0.701464594189,SPR,ao,B,,female,59.6641153056,001,2016_04_26_1026,
週六有場精彩的戲劇要公演了,週六沒有戲劇公演?,戲劇,的,要公演了,週六,精彩,j,有場,13,3,54,0,17,17,21,space,0.367253783254,space,0.317542289049,space,0.283481711129,space,0.267140417731,space,0.350672101267,space,0.334000026844,space,0.833815689439,f,0,1.11759028783,SPR,ao,B,,female,59.6641153056,001,2016_04_26_1026,
博物館裡有很多珍貴的收藏品,博物館沒有收藏品?,的,珍貴,收藏品,博物館裡,很多,j,有,13,3,56,0,18,18,23,space,0.417234875844,space,0.717777072532,space,0.383898226806,space,0.366920239147,space,0.300544565049,space,0.350794071841,space,0.450198902821,j,1,0.684191745633,SPR,ao,B,,female,59.6641153056,001,2016_04_26_1026,
表弟砍傷的疑犯發現了秘密,疑犯發現了秘密？,發現了,疑犯,秘密,表弟,的,f,砍傷,12,2,21,0,19,19,4,space,0.35067210126,space,0.384005987216,space,0.250318347134,space,0.400800426942,space,0.417309873927,space,0.250451764783,space,0.383886385003,f,1,0.701263283539,SPR,ao,B,,female,59.6641153056,001,2016_04_26_1026,
拉攏貴族的青年當上了執行長,貴族當上了執行長？,當上了,青年,執行長,拉攏,的,j,貴族,13,1,54,0,20,20,13,space,0.767455409688,space,0.433871424859,space,0.484132773454,space,0.667818084643,space,0.417328820811,space,0.683990040256,space,0.383898226806,j,1,0.884236112921,SPR,ao,B,,female,59.6641153056,001,2016_04_26_1026,
表姐熟識的院士解釋了理論,表姐解釋了理論？,解釋了,院士,理論,表姐,的,j,熟識,12,2,24,0,21,21,7,space,0.383978356345,space,0.433864319777,space,0.30048732966,space,0.316850727759,space,0.366793926572,space,0.300677587962,space,0.300730481351,j,1,0.833579642836,SPR,ao,B,,female,59.6641153056,001,2016_04_26_1026,
桌子上擺滿了一大堆舊的文件,桌上沒有文件?,的,舊,文件,桌子上,一大堆,j,擺滿了,12,3,52,0,22,22,19,space,0.350513815829,space,0.333968053972,space,0.283927357646,space,0.550580682546,space,0.25058597188,space,0.417585787938,space,0.834089629818,j,1,0.767256862127,SPR,ao,B,,female,59.6641153056,001,2016_04_26_1026,
驅趕交警的行政人員亂扔垃圾,行政人員亂扔垃圾？,亂扔,行政人員,垃圾,驅趕,的,f,交警,13,1,53,0,23,23,12,space,0.400620036802,space,0.517235744242,space,0.300663772527,space,0.383908489704,space,0.900936212944,space,0.51758547216,space,0.46733004447,f,1,0.634054735972,SPR,ao,B,,female,59.6641153056,001,2016_04_26_1026,
今年新出了很多部好看的美劇,今年有好看的美劇?,的,好看,美劇,今年,很多部,f,新出了,13,3,41,0,0,0,16,space,0.717680364476,space,0.383827965445,space,0.33384213614,space,0.284143273188,space,0.300516144722,space,0.334560933574,space,0.800884819517,f,1,0.733917844729,SPR,ao,B,,female,59.6641153056,001,2016_04_26_1026,
隊員維護的教練得罪了評審,教練得罪了評審？,得罪了,教練,評審,隊員,的,f,維護,12,2,15,0,1,1,6,space,0.267181074589,space,0.283713810466,space,0.284039065315,space,0.284106168874,space,0.26739501649,space,0.600516776285,space,0.551016460893,f,1,1.95227674452,SPR,ao,B,,female,59.6641153056,001,2016_04_26_1026,
哥哥嫉妒的富商觸犯了法律,哥哥違反了法律？,觸犯了,富商,法律,哥哥,的,j,嫉妒,12,2,14,0,2,2,5,space,0.384075459129,space,0.41786407031,space,0.45091612135,space,0.350677627437,space,0.300238257078,space,0.616552551161,space,0.334532907975,j,1,0.667069287971,SPR,ao,B,,female,59.6641153056,001,2016_04_26_1026,
姐姐非常喜歡吃抹茶霜淇淋,姐姐討厭吃霜淇淋?,抹茶,吃,霜淇淋,姐姐,喜歡,j,非常,12,3,46,0,3,3,21,space,0.367344175691,space,0.450888885207,space,0.267402911028,space,0.284111300323,space,0.300483382394,space,0.334204495302,space,0.500684456216,j,1,0.716888937306,SPR,ao,B,,female,59.6641153056,001,2016_04_26_1026,
攔住廣播員的大叔拿錯了行李,廣播員拿錯了行李？,拿錯了,大叔,行李,攔住,的,j,廣播員,13,1,46,0,4,4,13,space,0.784227349992,space,0.350674864356,space,0.334611458602,space,0.350717889567,space,0.333588326823,space,0.300569827559,space,0.355886047117,j,1,0.767414358103,SPR,ao,B,,female,59.6641153056,001,2016_04_26_1026,
羨慕舞者的造型師登上了雜誌,在雜誌上能看到舞者？,登上了,造型師,雜誌,羨慕,的,j,舞者,13,1,48,0,5,5,15,space,0.350181061163,space,0.317250980697,space,0.300970475226,space,0.300599037335,space,0.30124046834,space,0.300277335024,space,0.333594247728,j,1,1.6012249161,SPR,ao,B,,female,59.6641153056,001,2016_04_26_1026,
佩服科學家的商人買下了產品,商人買下了產品？,買下了,商人,產品,佩服,的,f,科學家,13,1,45,0,6,6,12,space,0.350464869713,space,0.367322860446,space,0.367895608979,space,0.317351636026,space,0.384137825953,space,1.4344500943,space,0.351144983935,f,1,0.600573616939,SPR,ao,B,,female,59.6641153056,001,2016_04_26_1026,
張三認識的司機違反了規定,司機不遵守規定？,違反了,司機,規定,張三,的,f,認識,12,2,9,0,7,7,0,space,0.384427160672,space,0.300635746928,space,0.35067960107,space,0.334175285527,space,0.333877661542,space,0.300940081266,space,0.267091471607,f,1,0.867312992275,SPR,ao,B,,female,59.6641153056,001,2016_04_26_1026,
飛上太空是許多人心中的夢想,很多人想飛上太空?,的,心中,夢想,飛上太空,許多人,f,是,13,3,43,0,8,8,18,space,0.333831478514,space,0.384072696041,space,0.367419963222,space,0.333515697101,space,0.584212587208,space,0.351055380954,space,0.333622273327,f,1,0.850819334351,SPR,ao,B,,female,59.6641153056,001,2016_04_26_1026,
小王欣賞的村長參加了競選,小王不想去競選？,參加了,村長,競選,小王,的,j,欣賞,12,2,12,0,9,9,3,space,0.417482764256,space,0.283996434831,space,0.5173723197,space,0.317245059799,space,0.400906213705,space,0.500378542973,space,0.300465224966,j,1,1.11737595119,SPR,ao,B,,female,59.6641153056,001,2016_04_26_1026,
老師今天分配了很多重要的任務,老師今天分配了任務?,的,很多重要,任務,老師,分配了,f,今天,11,3,45,0,10,10,20,space,0.351030118443,space,0.600802953188,space,0.434477330447,space,0.267209889644,space,0.284014197532,space,0.450319689211,space,0.300839425945,f,1,0.884189140437,SPR,ao,B,,female,59.6641153056,001,2016_04_26_1026,
學校的操場上聚集了很多學生,操場上沒有學生?,很多,聚集了,學生,學校,操場上,j,的,13,3,44,0,11,11,19,space,0.350448291189,space,0.317313347521,space,0.31709190581,space,0.36756838049,space,0.267200021473,space,0.30053745996,space,0.317500053294,j,1,0.951065722802,SPR,ao,B,,female,59.6641153056,001,2016_04_26_1026,
總統拜訪的老人遭遇了車禍,老人遭遇了車禍？,遭遇了,老人,車禍,總統,的,f,拜訪,12,2,11,0,12,12,2,space,0.367612195158,space,0.350763283146,space,0.350736046996,space,0.484189614108,space,0.350816965991,space,0.267113971036,space,0.333916344767,f,1,0.534155312351,SPR,ao,B,,female,59.6641153056,001,2016_04_26_1026,
讚賞女婿的工程師籌辦了晚宴,工程師舉辦了一場晚宴？,籌辦了,工程師,晚宴,讚賞,的,f,女婿,13,1,47,0,13,13,14,space,0.367408121427,space,0.717110773752,space,0.233856267354,space,0.600790716657,space,0.333591484632,space,0.268488409638,space,0.351063670219,f,1,0.751170562224,SPR,ao,B,,female,59.6641153056,001,2016_04_26_1026,
群眾欺瞞的主席失去了權力,群眾得到了權力？,失去了,主席,權力,群眾,的,j,欺瞞,12,2,16,0,14,14,7,space,0.36726444088,space,0.383965330358,space,0.317263217228,space,0.300645615098,space,0.352251797784,space,0.300814952883,space,0.300550485954,j,1,0.784134589194,SPR,ao,B,,female,59.6641153056,001,2016_04_26_1026,
尊敬在地人的導遊受到了表揚,在地人不喜歡導遊？,受到了,導遊,表揚,尊敬,的,j,在地人,13,1,44,0,15,15,11,space,0.350932226203,space,0.367482330053,space,0.384261770159,space,0.684251744096,space,0.350776309133,space,0.300673640704,space,0.300812979243,j,1,1.10045756727,SPR,ao,B,,female,59.6641153056,001,2016_04_26_1026,
王總邀請的政客出席了宴會,政客參加了宴會？,出席了,政客,宴會,王總,的,f,邀請,12,2,13,0,16,16,4,space,0.450794150784,space,0.600688877152,space,0.350635786403,space,0.267348833469,space,0.300830347223,space,0.333881214086,space,0.267481066934,f,1,0.667929792318,SPR,ao,B,,female,59.6641153056,001,2016_04_26_1026,
害怕老闆的藥劑師調配了新藥,藥劑師調配了新藥？,調配了,藥劑師,新藥,害怕,的,f,老闆,13,1,43,0,17,17,10,space,0.4172356653,space,0.384058485877,space,0.450682443101,space,0.300882451156,space,0.250419002463,space,0.267235152154,space,0.367247467628,f,1,0.567293808548,SPR,ao,B,,female,59.6641153056,001,2016_04_26_1026,
小朋友需要父母的關愛和鼓勵,小朋友不需要父母的關愛?,關愛和,的,鼓勵,小朋友,父母,j,需要,13,3,48,0,18,18,23,space,0.700955001943,space,0.384169798825,space,0.400517802576,space,0.317367425101,space,0.35025171726,space,0.450598761032,space,0.31750439528,j,1,1.03430688743,SPR,ao,B,,female,59.6641153056,001,2016_04_26_1026,
唆使兇嫌的槍手瞄準了目標,槍手無法找到目標？,瞄準了,槍手,目標,唆使,的,j,兇嫌,12,1,42,0,19,19,9,space,0.433816952565,space,0.400785427322,space,0.266865687903,space,0.2676811934,space,0.250347162189,space,0.550762651583,space,0.31739308234,j,1,1.0010262896,SPR,ao,B,,female,59.6641153056,001,2016_04_26_1026,
大學部設置了許多不同的課程,大學部有很多課程?,教學,的,課程,大學部,許多不同,f,設置了,13,3,47,0,20,20,22,space,0.367272335418,space,0.300235888717,space,0.26756790682,space,0.300439567727,space,0.283966040864,space,0.284188666759,space,0.467241230945,f,1,0.633973422264,SPR,ao,B,,female,59.6641153056,001,2016_04_26_1026,
關心小金的助教迷上了遊戲,助教喜歡打遊戲？,迷上了,助教,遊戲,關心,的,f,小金,12,1,41,0,21,21,8,space,0.333385042541,space,0.334038710062,space,0.316823886336,space,0.284062748928,space,0.267217389453,space,0.650835754983,space,0.334166996261,f,1,0.634487751231,SPR,ao,B,,female,59.6641153056,001,2016_04_26_1026,
醫生厭煩的病人嘀咕了幾句,病人喜歡醫生？,嘀咕了,病人,幾句,醫生,的,j,厭煩,12,2,10,0,22,22,1,space,0.400433331044,space,0.333783716575,space,0.283785650739,space,0.317282558841,space,0.30092942364,space,0.300102865796,space,0.417405397813,j,1,1.08412495786,SPR,ao,B,,female,59.6641153056,001,2016_04_26_1026,
她的書架上擺放了一大堆的書,她的書架上沒有書?,的,一大堆,書,她的,擺放了,j,書架上,13,3,42,0,23,23,17,space,0.71723945468,space,0.484040012663,space,0.25079162453,space,0.28422024491,space,0.234008237159,space,0.317425844652,space,0.317549394138,j,1,0.917346978247,SPR,ao,B,,female,59.6641153056,001,2016_04_26_1026,
