Sentences,Question,word5,word4,word6,word1,word3,Ans,word2,lenth,Type,ID,practicetrials.thisRepN,practicetrials.thisTrialN,practicetrials.thisN,practicetrials.thisIndex,key_resp_12.keys,key_resp_12.rt,Atests1.keys,Atests1.rt,Atests2.keys,Atests2.rt,Atests3.keys,Atests3.rt,Atests4.keys,Atests4.rt,Atests5.keys,Atests5.rt,Atests6.keys,Atests6.rt,key_resp_8.keys,key_resp_8.corr,key_resp_8.rt,expName,participant,version,Grade,Gender,frameRate,session,date,
責罵小明的管理員掄起了拳頭,管理員握起了拳頭？,掄起了,管理員,拳頭,責罵,的,f,小明,13,1,59,0,0,0,10,space,0.416646732963,space,0.350199613327,space,0.500421173463,space,0.350304610642,space,0.433505118424,space,0.416936462418,space,0.416972777275,f,1,2.45180544076,SPR,yu,B,,male,60.0079587462,001,2016_04_26_1307,
撞見業務員的藝人衝進了現場,藝人闖進了現場？,衝進了,藝人,現場,撞見,的,f,業務員,13,1,63,0,1,1,14,space,0.367048525339,space,0.333661746001,space,0.350376056187,space,0.450478764091,space,0.316855859208,space,0.466985448002,space,0.750337688747,j,0,4.55059094544,SPR,yu,B,,male,60.0079587462,001,2016_04_26_1307,
詆毀代理商的律師吃上了官司,律師碰上了官司？,吃上了,律師,官司,詆毀,的,f,代理商,13,1,61,0,2,2,12,space,0.733979027376,space,1.18373583622,space,0.68362254963,space,0.535162655062,space,0.666939028131,space,0.533552169851,space,1.31679546601,f,1,3.26717554841,SPR,yu,B,,male,60.0079587462,001,2016_04_26_1307,
討好主播的發言人處理了糾紛,發言人擺平了糾紛？,處理了,發言人,糾紛,討好,的,f,主播,13,1,57,0,3,3,8,space,0.366895371357,space,0.317282558841,space,0.383611260448,space,0.266924107462,space,0.36696484327,space,0.517069169546,space,0.383580077032,f,1,2.95050915806,SPR,yu,B,,male,60.0079587462,001,2016_04_26_1307,
童年的回憶總是美好而快樂的,童年的回憶很痛苦?,而,美好,快樂的,童年的,總是,j,回憶,13,3,62,0,4,4,21,space,0.350214218219,space,0.500489066464,space,0.450046538288,space,0.516898252856,space,0.400204784244,space,0.333444646283,space,0.550223849554,j,1,1.06691487085,SPR,yu,B,,male,60.0079587462,001,2016_04_26_1307,
顧客熟悉的職工推薦了商品,職工推薦了商品？,推薦了,職工,商品,顧客,的,f,熟悉,12,2,25,0,5,5,0,space,0.336426412272,space,0.367084445475,space,0.383476658622,space,0.33344583046,space,0.433925897159,space,0.550328846868,space,1.71188380192,f,1,0.866900897527,SPR,yu,B,,male,60.0079587462,001,2016_04_26_1307,
責備治療師的婦女察覺了動靜,治療師察覺了動靜？,察覺了,婦女,動靜,責備,的,j,治療師,13,1,62,0,6,6,13,space,0.28357486664,space,0.300167206253,space,0.500311044692,space,0.51711298422,space,1.08544176636,space,0.933758138279,space,0.683744520204,j,1,5.80787424637,SPR,yu,B,,male,60.0079587462,001,2016_04_26_1307,
上尉惹怒的服務員扔了盤子,盤子是上尉扔的？,扔了,服務員,盤子,上尉,的,j,惹怒,12,2,30,0,7,7,5,space,0.33348293478,space,0.367029183726,space,0.533492960836,space,0.483784624448,space,1.06695592244,space,1.36791968731,space,0.550314636705,j,1,5.27611571494,SPR,yu,B,,male,60.0079587462,001,2016_04_26_1307,
孩子親近的阿姨迷失了方向,阿姨迷路了？,迷失了,阿姨,方向,孩子,的,f,親近,12,2,27,0,8,8,2,space,0.366959317093,space,0.533469671958,space,0.80029549246,space,0.566864740562,space,1.01698272439,space,1.61742410786,space,0.433520907492,f,1,3.45073533649,SPR,yu,B,,male,60.0079587462,001,2016_04_26_1307,
支持小林的研究員分析了案例,小林不懂分析案例？,分析了,研究員,案例,支持,的,j,小林,13,1,64,0,9,9,15,space,0.366885897914,space,0.516823254773,space,0.466893476667,space,0.38739116396,space,0.717605366393,space,0.450200481726,space,0.500126707288,j,1,8.36676511152,SPR,yu,B,,male,60.0079587462,001,2016_04_26_1307,
朋友們推薦了許多好聽的歌曲,朋友們推薦了歌曲?,的,好聽,歌曲,朋友們,許多,f,推薦了,13,3,57,0,10,10,16,space,0.333648325293,space,0.516925094285,space,0.533626773213,space,0.466985053274,space,0.633448435656,space,0.58428521693,space,1.86702878901,f,1,1.61723542846,SPR,yu,B,,male,60.0079587462,001,2016_04_26_1307,
小明昨天吃了一碗美味的小米粥,小明昨天沒吃小米粥?,的,美味,小米粥,小明,吃了一碗,j,昨天,12,3,58,0,11,11,17,space,0.338204656357,space,0.366772216606,space,0.533653219907,space,1.0003967004,space,0.55048200085,space,0.366863793213,space,0.533612957777,j,1,4.65163231359,SPR,yu,B,,male,60.0079587462,001,2016_04_26_1307,
侮辱空服員的旅客拿出了凶器,空服員把凶器藏了起來？,拿出了,旅客,凶器,侮辱,的,j,空服員,13,1,58,0,12,12,9,space,0.283692100493,space,0.433761690823,space,0.45569468358,space,0.500277098188,space,0.583444448916,space,0.633637115054,space,2.28366091708,j,1,3.55058265618,SPR,yu,B,,male,60.0079587462,001,2016_04_26_1307,
犯人檢舉的同伴知道了敵情,犯人知道了敵情？,知道了,同伴,敵情,犯人,的,j,檢舉,12,2,26,0,13,13,1,space,0.283728020629,space,0.416711468155,space,0.366892608268,space,0.333704771219,space,0.433461698478,space,0.500301965978,space,0.550359240828,j,1,1.77022560213,SPR,yu,B,,male,60.0079587462,001,2016_04_26_1307,
隔壁的大伯擅長修理各種電器,大伯不會修理電器?,各種,修理,電器,隔壁的,擅長,j,大伯,13,3,64,0,14,14,23,space,0.266851083012,space,0.333456488086,space,0.276542019848,space,0.466681113663,space,0.383639680775,space,0.50024591478,space,0.566931844114,j,1,1.99595720846,SPR,yu,B,,male,60.0079587462,001,2016_04_26_1307,
市民信任的委員爭到了選票,委員放棄了選票？,爭到了,委員,選票,市民,的,j,信任,12,2,28,0,15,15,3,space,0.267033052049,space,0.300075629653,space,0.334057262218,space,0.366997210862,space,0.350232770375,space,0.450352451531,space,0.583667864266,j,1,2.90689658711,SPR,yu,B,,male,60.0079587462,001,2016_04_26_1307,
小吳批評的評論家說了粗話,評論家說了粗話？,說了,評論家,粗話,小吳,的,f,批評,12,2,29,0,16,16,4,space,0.267313308053,space,0.333703192315,space,0.400595958468,space,0.366723665218,space,0.633735007286,space,0.890436875692,space,0.849500157492,f,1,2.11691767342,SPR,yu,B,,male,60.0079587462,001,2016_04_26_1307,
捧紅大姑姑的明星拍攝了新片,大姑姑拍攝了新片？,拍攝了,明星,新片,捧紅,的,j,大姑姑,13,1,60,0,17,17,11,space,0.316801386914,space,0.450323636476,space,0.48428711162,space,0.533761769766,space,0.433451830308,space,0.933609721018,space,0.983784624441,j,1,1.38425545453,SPR,yu,B,,male,60.0079587462,001,2016_04_26_1307,
駕駛員碰見的盜賊撕了名畫,駕駛員毀壞了名畫？,撕了,盜賊,名畫,駕駛員,的,j,碰見,12,2,32,0,18,18,7,space,0.283907226578,space,0.516457343067,space,0.337581382795,space,0.333716218294,space,0.700370016872,space,0.567186048145,space,0.53369229786,j,1,1.88366099602,SPR,yu,B,,male,60.0079587462,001,2016_04_26_1307,
熱鬧的夜市有很多美味的食物,夜市裡有很多美食?,的,美味,食物,熱鬧的,有很多,f,夜市,13,3,61,0,19,19,20,space,0.300453777891,space,0.333695692498,space,0.350134483408,space,0.433592747766,space,0.350092247645,space,0.433601431752,space,0.633732638926,f,1,1.33461066915,SPR,yu,B,,male,60.0079587462,001,2016_04_26_1307,
每個人都應該要遵守交通規則,交通規則人人遵守?,交通,遵守,規則,每個人,要,f,都應該,13,3,63,0,20,20,22,space,0.31678244003,space,0.317026775898,space,0.40032083392,space,0.300485750762,space,0.400342543886,space,0.385185825522,space,0.400486619154,f,1,1.21704406493,SPR,yu,B,,male,60.0079587462,001,2016_04_26_1307,
我今天學會了一個新的技能,我今天沒學新技能?,新的,一個,技能,我,學會了,j,今天,12,3,60,0,21,21,19,space,0.283619470771,space,0.300656272717,space,0.383505473677,space,0.400325175913,space,0.383835070526,space,0.602108314604,space,0.517187587582,j,1,1.11690148962,SPR,yu,B,,male,60.0079587462,001,2016_04_26_1307,
媽媽的拿手菜是糖醋排骨,媽媽會煮糖醋排骨?,糖醋,是,排骨,媽媽,拿手菜,f,的,11,3,59,0,22,22,18,space,0.300955870334,space,0.633666719565,space,0.300590748077,space,0.400312544654,space,0.300248519969,space,0.384066380415,space,0.500337886115,f,1,1.1505618146,SPR,yu,B,,male,60.0079587462,001,2016_04_26_1307,
叔叔協助的警察破了大案件,警察偵破了大案件？,破了,警察,大案件,叔叔,的,f,協助,12,2,31,0,23,23,6,space,0.316942304366,space,0.4668172944,space,0.400310571014,space,0.383790466396,space,0.466978737648,space,0.650672732831,space,0.61688017437,f,1,2.7671179183,SPR,yu,B,,male,60.0079587462,001,2016_04_26_1307,
表哥結識的中醫師開了偏方,中醫生開錯了偏方？,開了,中醫師,偏方,表哥,的,j,結識,12,2,20,0,0,0,3,space,0.68373978349,space,0.833778190397,space,0.5005530122,space,0.300548512314,space,0.450423107621,space,0.58378430867,space,0.833554380319,j,1,6.18537592593,SPR,yu,B,,male,60.0079587462,001,2016_04_26_1307,
驅趕交警的行政人員亂扔垃圾,行政人員亂扔垃圾？,亂扔,行政人員,垃圾,驅趕,的,f,交警,13,1,53,0,1,1,12,space,0.366999579222,space,0.31693046257,space,0.333699245042,space,0.400303071205,space,1.11681188664,space,1.05038884534,space,0.350277374499,f,1,3.76725133596,SPR,yu,B,,male,60.0079587462,001,2016_04_26_1307,
督促小謝的技術員趕上了進度,技術員落下了進度？,趕上了,技術員,進度,督促,的,j,小謝,13,1,50,0,2,2,9,space,0.316698757953,space,0.466986237458,space,0.516897858135,space,0.500479198294,space,1.68361504983,space,0.537487990441,space,0.650277216606,j,1,1.26715383845,SPR,yu,B,,male,60.0079587462,001,2016_04_26_1307,
老婆迷戀的編輯出版了新書,編輯出版了新書？,出版了,編輯,新書,老婆,的,f,迷戀,12,2,17,0,3,3,0,space,0.316735072818,space,0.366946685834,space,0.450138509623,space,0.283825912869,space,0.434110629278,space,0.600230204655,space,0.483752256856,f,1,1.10013270714,SPR,yu,B,,male,60.0079587462,001,2016_04_26_1307,
週六有場精彩的戲劇要公演了,週六沒有戲劇公演?,戲劇,的,要公演了,週六,精彩,j,有場,13,3,54,0,4,4,21,space,0.300229178356,space,0.400654378027,space,1.06826404694,space,0.483530815131,space,0.300227994179,space,0.333608063163,space,0.551525263698,j,1,1.11685885913,SPR,yu,B,,male,60.0079587462,001,2016_04_26_1307,
照顧小崔的飛行員擊落了敵機,飛行員打落了敵機？,擊落了,飛行員,敵機,照顧,的,f,小崔,13,1,49,0,5,5,8,space,0.333637667667,space,0.283433554461,space,0.300427725924,space,0.333717402471,space,0.617184903436,space,0.483736862509,space,1.13409578756,f,1,1.28375130951,SPR,yu,B,,male,60.0079587462,001,2016_04_26_1307,
拉攏貴族的青年當上了執行長,貴族當上了執行長？,當上了,青年,執行長,拉攏,的,j,貴族,13,1,54,0,6,6,13,space,0.266825820501,space,0.300581274641,space,0.417090800584,space,0.2835594723,space,0.41689935809,space,0.550578708913,space,1.22284102222,j,1,2.1670092895,SPR,yu,B,,male,60.0079587462,001,2016_04_26_1307,
親近大自然的最好方式是旅遊,旅遊能夠親近大自然?,是,最好方式,旅遊,親近,的,f,大自然,13,3,55,0,7,7,22,space,0.267095813608,space,0.36708049821,space,0.383445475214,space,0.250329399489,space,0.500242362235,space,0.266895292414,space,0.366978263977,f,1,0.966735585964,SPR,yu,B,,male,60.0079587462,001,2016_04_26_1307,
表弟砍傷的疑犯發現了秘密,疑犯發現了秘密？,發現了,疑犯,秘密,表弟,的,f,砍傷,12,2,21,0,8,8,4,space,0.35037487201,space,0.283806571257,space,0.817266769773,space,0.31715940409,space,0.933724586503,space,0.400312149926,space,2.60070348204,f,1,1.01708495862,SPR,yu,B,,male,60.0079587462,001,2016_04_26_1307,
校園門口的那棵樹長滿了新葉,樹長滿了新葉?,長滿了,樹,新葉,校園門口,那棵,f,的,13,3,49,0,9,9,16,space,0.266975027218,space,0.33360924734,space,0.266802136895,space,0.333387410901,space,0.250278479733,space,0.400438462493,space,0.283722494452,f,1,0.950023644131,SPR,yu,B,,male,60.0079587462,001,2016_04_26_1307,
雇主同情的技工拿到了專利,雇主毆打了技工？,拿到了,技工,專利,雇主,的,j,同情,12,2,18,0,10,10,1,space,0.3004612777,space,0.28369999503,space,0.400620826258,space,0.300223652186,space,0.78376315131,space,0.317225323459,space,0.783693679397,j,1,2.21713327318,SPR,yu,B,,male,60.0079587462,001,2016_04_26_1307,
農夫辱罵的木匠造出了新房,木匠造出了新房？,造出了,木匠,新房,農夫,的,f,辱罵,12,2,19,0,11,11,2,space,0.266840820113,space,0.267158969895,space,0.28379354527,space,0.333690166328,space,0.566738033267,space,0.300515355266,space,2.26706699855,f,1,0.867070235312,SPR,yu,B,,male,60.0079587462,001,2016_04_26_1307,
博物館裡有很多珍貴的收藏品,博物館沒有收藏品?,的,珍貴,收藏品,博物館裡,很多,j,有,13,3,56,0,12,12,23,space,0.283591839892,space,0.267073314179,space,0.333869767011,space,0.350283295396,space,0.300440357183,space,0.333321491533,space,0.366775374423,j,1,0.950281795442,SPR,yu,B,,male,60.0079587462,001,2016_04_26_1307,
小郭取笑的廚師偷聽了對話,小郭表揚了廚師？,偷聽了,廚師,對話,小郭,的,j,取笑,12,2,22,0,13,13,5,space,0.300347596385,space,0.333617931326,space,0.300213784016,space,0.283443027904,space,0.30038627961,space,0.750222033806,space,0.467304387232,j,1,1.81678954511,SPR,yu,B,,male,60.0079587462,001,2016_04_26_1307,
上司嘲笑的會計偽造了帳目,會計偽造了帳目？,偽造了,會計,帳目,上司,的,f,嘲笑,12,2,23,0,14,14,6,space,0.250092563423,space,0.317224139275,space,0.450302321224,space,0.366745375184,space,0.71745300186,space,1.43754435742,space,1.20008226106,f,1,2.00029012417,SPR,yu,B,,male,60.0079587462,001,2016_04_26_1307,
每個人的相處方式都不一樣,相處方式都一樣的?,都,方式,不一樣,每個人,相處,j,的,12,3,50,0,15,15,17,space,0.233630483643,space,0.317136904661,space,0.267016078804,space,0.350268690512,space,0.367022078644,space,0.300323912779,space,0.316935199291,j,1,1.06708578754,SPR,yu,B,,male,60.0079587462,001,2016_04_26_1307,
桌子上擺滿了一大堆舊的文件,桌上沒有文件?,的,舊,文件,桌子上,一大堆,j,擺滿了,12,3,52,0,16,16,19,space,0.183725178591,space,0.350071327121,space,0.266730691343,space,0.483521736423,space,0.417003171235,space,0.283674337792,space,0.566769611403,j,1,1.70073869167,SPR,yu,B,,male,60.0079587462,001,2016_04_26_1307,
輕視政府的逃亡者認清了事實,政府認清了事實？,認清了,逃亡者,事實,輕視,的,j,政府,13,1,56,0,17,17,15,space,0.266903581665,space,0.30023036254,space,0.267109629043,space,0.53428912472,space,0.450112062928,space,0.483699363467,space,1.6170605645,j,1,1.01679404499,SPR,yu,B,,male,60.0079587462,001,2016_04_26_1307,
表姐熟識的院士解釋了理論,表姐解釋了理論？,解釋了,院士,理論,表姐,的,j,熟識,12,2,24,0,18,18,7,space,0.266896476591,space,0.250309663148,space,0.366965632718,space,0.300173916614,space,0.422248300507,space,0.416825544191,space,0.417410134534,j,1,0.916902910634,SPR,yu,B,,male,60.0079587462,001,2016_04_26_1307,
袒護隊長的消防員聲援了遊行,隊長聲援了遊行？,聲援了,消防員,遊行,袒護,的,j,隊長,13,1,52,0,19,19,11,space,0.286024540947,space,0.283522367979,space,0.433576563963,space,0.450223375876,space,0.650502605589,space,0.333532275625,space,1.08397456697,j,1,5.73433112365,SPR,yu,B,,male,60.0079587462,001,2016_04_26_1307,
音樂可以讓人身心得到放鬆,音樂會讓人放鬆?,得到,身心,放鬆,音樂,讓人,f,可以,12,3,51,0,20,20,18,space,0.266769769296,space,0.367101418728,space,0.333835820507,space,0.433612878835,space,0.450079695336,space,0.333698455586,space,0.26690950257,f,1,0.85204140842,SPR,yu,B,,male,60.0079587462,001,2016_04_26_1307,
每週都有寫不完的作業和報告,每週都有作業?,作業和,的,報告,每週,寫不完,f,都有,13,3,53,0,21,21,20,space,0.250289137359,space,0.266979763939,space,0.28330368935,space,0.36694787001,space,0.267117523581,space,0.333460435351,space,0.333725297009,f,1,1.36711760252,SPR,yu,B,,male,60.0079587462,001,2016_04_26_1307,
資助航海家的演員擔任了主角,演員當上了主角？,擔任了,演員,主角,資助,的,f,航海家,13,1,51,0,22,22,10,space,0.283646706914,space,0.283495526557,space,0.567057367218,space,0.671177998876,space,0.783648285818,space,0.366943528024,space,1.31715624627,f,1,1.56861298541,SPR,yu,B,,male,60.0079587462,001,2016_04_26_1307,
忽視小白的企業家投資了廣告,企業家投資了廣告？,投資了,企業家,廣告,忽視,的,f,小白,13,1,55,0,23,23,14,space,0.350197639687,space,0.350384345453,space,0.466962553852,space,0.350241454362,space,0.700310807857,space,0.566900265963,space,0.600285071669,f,1,3.03763009208,SPR,yu,B,,male,60.0079587462,001,2016_04_26_1307,
唆使兇嫌的槍手瞄準了目標,槍手無法找到目標？,瞄準了,槍手,目標,唆使,的,j,兇嫌,12,1,42,0,0,0,9,space,0.383566261597,space,0.500229730984,space,0.766954501421,space,1.21836008397,space,0.718685733547,space,0.766699902662,space,0.283510920905,j,1,3.78397038286,SPR,yu,B,,male,60.0079587462,001,2016_04_26_1307,
關心小金的助教迷上了遊戲,助教喜歡打遊戲？,迷上了,助教,遊戲,關心,的,f,小金,12,1,41,0,1,1,8,space,0.334143312655,space,0.28359539243,space,0.300131286123,space,0.366898529173,space,0.550144904199,space,0.750254401399,space,0.583607471068,f,1,3.15090956889,SPR,yu,B,,male,60.0079587462,001,2016_04_26_1307,
她的書架上擺放了一大堆的書,她的書架上沒有書?,的,一大堆,書,她的,擺放了,j,書架上,13,3,42,0,2,2,17,space,0.367171285368,space,0.967129917997,space,0.71706853799,space,1.00023328351,space,0.533470856135,space,0.533516249721,space,0.717509053058,j,1,1.30729834002,SPR,yu,B,,male,60.0079587462,001,2016_04_26_1307,
王總邀請的政客出席了宴會,政客參加了宴會？,出席了,政客,宴會,王總,的,f,邀請,12,2,13,0,3,3,4,space,0.30011707596,space,0.416924620607,space,0.473177132058,space,0.333813321078,space,0.767320413135,space,0.366933265126,space,0.383601392285,f,1,3.85058723501,SPR,yu,B,,male,60.0079587462,001,2016_04_26_1307,
飛上太空是許多人心中的夢想,很多人想飛上太空?,的,心中,夢想,飛上太空,許多人,f,是,13,3,43,0,4,4,18,space,0.300209047295,space,0.383600208101,space,0.283528288885,space,0.583595629272,space,0.234234415591,space,0.266896081863,space,0.300223257458,f,1,1.01690141067,SPR,yu,B,,male,60.0079587462,001,2016_04_26_1307,
總統拜訪的老人遭遇了車禍,老人遭遇了車禍？,遭遇了,老人,車禍,總統,的,f,拜訪,12,2,11,0,5,5,2,space,0.200517249956,space,0.316730730818,space,0.383699284517,space,0.284780756912,space,0.717031433676,space,0.383578498127,space,0.450208770992,f,1,0.75005545911,SPR,yu,B,,male,60.0079587462,001,2016_04_26_1307,
小朋友需要父母的關愛和鼓勵,小朋友不需要父母的關愛?,關愛和,的,鼓勵,小朋友,父母,j,需要,13,3,48,0,6,6,23,space,0.266962790687,space,0.316930857298,space,0.316868885187,space,0.28363802292,space,0.300249704153,space,0.33367240362,space,0.316948619991,j,1,0.966892687218,SPR,yu,B,,male,60.0079587462,001,2016_04_26_1307,
張三認識的司機違反了規定,司機不遵守規定？,違反了,司機,規定,張三,的,f,認識,12,2,9,0,7,7,0,space,0.266811215603,space,0.316849543575,space,0.350337372969,space,0.300418252482,space,0.633609878903,space,0.433380384762,space,0.467026499588,f,1,1.91728540087,SPR,yu,B,,male,60.0079587462,001,2016_04_26_1307,
老師今天分配了很多重要的任務,老師今天分配了任務?,的,很多重要,任務,老師,分配了,f,今天,11,3,45,0,8,8,20,space,0.233739428229,space,0.233614299847,space,0.250314399869,space,0.350293558295,space,0.350180666443,space,0.416898173913,space,0.535444095243,f,1,0.991000624454,SPR,yu,B,,male,60.0079587462,001,2016_04_26_1307,
大學部設置了許多不同的課程,大學部有很多課程?,教學,的,課程,大學部,許多不同,f,設置了,13,3,47,0,9,9,22,space,0.233966396117,space,0.333491618767,space,0.283704731744,space,0.416922252254,space,0.617296216384,space,1.0671485491,space,0.416860674872,f,1,0.733212862731,SPR,yu,B,,male,60.0079587462,001,2016_04_26_1307,
小王欣賞的村長參加了競選,小王不想去競選？,參加了,村長,競選,小王,的,j,欣賞,12,2,12,0,10,10,3,space,0.266995553007,space,0.383685074361,space,0.250235849242,space,0.300089050361,space,0.433580511235,space,0.533659140805,space,0.583809176453,j,1,2.53365203573,SPR,yu,B,,male,60.0079587462,001,2016_04_26_1307,
佩服科學家的商人買下了產品,商人買下了產品？,買下了,商人,產品,佩服,的,f,科學家,13,1,45,0,11,11,12,space,0.516948777884,space,0.900337412437,space,0.900442409758,space,0.316859017024,space,0.45025732238,space,0.450313373578,space,0.550301610718,f,1,1.03347835594,SPR,yu,B,,male,60.0079587462,001,2016_04_26_1307,
群眾欺瞞的主席失去了權力,群眾得到了權力？,失去了,主席,權力,群眾,的,j,欺瞞,12,2,16,0,12,12,7,space,0.316967566876,space,0.350425397039,space,0.300260756507,space,0.300254046153,space,0.416909620988,space,0.466945185872,space,0.55039358206,j,1,2.00022381008,SPR,yu,B,,male,60.0079587462,001,2016_04_26_1307,
姐姐非常喜歡吃抹茶霜淇淋,姐姐討厭吃霜淇淋?,抹茶,吃,霜淇淋,姐姐,喜歡,j,非常,12,3,46,0,13,13,21,space,0.233626931105,space,0.607821589816,space,0.300190100417,space,0.267200810929,space,0.300102865796,space,0.350214218219,space,0.417236849476,j,1,1.85053907834,SPR,yu,B,,male,60.0079587462,001,2016_04_26_1307,
醫生厭煩的病人嘀咕了幾句,病人喜歡醫生？,嘀咕了,病人,幾句,醫生,的,j,厭煩,12,2,10,0,14,14,1,space,0.300293913555,space,0.316921778576,space,0.400300308123,space,0.36704023608,space,0.366799847478,space,0.717021960234,space,0.43360932629,j,1,7.40283248033,SPR,yu,B,,male,60.0079587462,001,2016_04_26_1307,
隊員維護的教練得罪了評審,教練得罪了評審？,得罪了,教練,評審,隊員,的,f,維護,12,2,15,0,15,15,6,space,0.250036117497,space,0.316927304746,space,0.317051248952,space,0.433477882274,space,0.78355710394,space,0.48362831265,space,0.450254954019,f,1,4.06715486473,SPR,yu,B,,male,60.0079587462,001,2016_04_26_1307,
哥哥嫉妒的富商觸犯了法律,哥哥違反了法律？,觸犯了,富商,法律,哥哥,的,j,嫉妒,12,2,14,0,16,16,5,space,0.250285584814,space,0.266945817435,space,0.316989671584,space,0.266870819352,space,0.533438488543,space,0.483566340547,space,1.16716836439,j,1,1.31712979958,SPR,yu,B,,male,60.0079587462,001,2016_04_26_1307,
今年新出了很多部好看的美劇,今年有好看的美劇?,的,好看,美劇,今年,很多部,f,新出了,13,3,41,0,17,17,16,space,0.250353083095,space,0.316849148854,space,0.266984895381,space,0.333583590109,space,0.333859504113,space,0.0670739457419,space,1.01133063182,f,1,1.18386451714,SPR,yu,B,,male,60.0079587462,001,2016_04_26_1307,
羨慕舞者的造型師登上了雜誌,在雜誌上能看到舞者？,登上了,造型師,雜誌,羨慕,的,j,舞者,13,1,48,0,18,18,15,space,0.233433909714,space,0.266916212931,space,0.400263598531,space,0.300361806556,space,0.533595195069,space,0.400136891243,space,0.416988171615,j,1,3.31738400362,SPR,yu,B,,male,60.0079587462,001,2016_04_26_1307,
尊敬在地人的導遊受到了表揚,在地人不喜歡導遊？,受到了,導遊,表揚,尊敬,的,j,在地人,13,1,44,0,19,19,11,space,0.233583511159,space,0.300110760327,space,0.283755651501,space,0.366963264358,space,0.800248125241,space,0.433786163878,space,0.933800374041,j,1,4.60096321225,SPR,yu,B,,male,60.0079587462,001,2016_04_26_1307,
攔住廣播員的大叔拿錯了行李,廣播員拿錯了行李？,拿錯了,大叔,行李,攔住,的,j,廣播員,13,1,46,0,20,20,13,space,0.283560261749,space,0.316989276849,space,0.416975540364,space,0.517015881436,space,0.350297900288,space,0.483757388298,space,1.33382555761,f,0,2.90070174524,SPR,yu,B,,male,60.0079587462,001,2016_04_26_1307,
讚賞女婿的工程師籌辦了晚宴,工程師舉辦了一場晚宴？,籌辦了,工程師,晚宴,讚賞,的,f,女婿,13,1,47,0,21,21,14,space,1.06713197058,space,0.383444685758,space,0.566848951486,space,0.350245006899,space,1.27507284682,space,1.78385788573,space,0.350124615245,f,1,1.15024642792,SPR,yu,B,,male,60.0079587462,001,2016_04_26_1307,
害怕老闆的藥劑師調配了新藥,藥劑師調配了新藥？,調配了,藥劑師,新藥,害怕,的,f,老闆,13,1,43,0,22,22,10,space,0.283632102022,space,0.316987697945,space,0.36695734346,space,0.250315978774,space,0.4835730509,space,0.58356878785,space,0.317223744554,f,1,1.05028226911,SPR,yu,B,,male,60.0079587462,001,2016_04_26_1307,
學校的操場上聚集了很多學生,操場上沒有學生?,很多,聚集了,學生,學校,操場上,j,的,13,3,44,0,23,23,19,space,0.333748585886,space,0.350242638546,space,0.316890989889,space,0.738027345091,space,0.450273111448,space,0.333472277154,space,0.283565393205,j,1,1.31694783054,SPR,yu,B,,male,60.0079587462,001,2016_04_26_1307,
襲擊刺客的鐵匠鑄造了寶劍,鐵匠救了刺客？,鑄造了,鐵匠,寶劍,襲擊,的,f,刺客,12,1,39,0,0,0,14,space,0.483605813213,space,0.616787413586,space,0.46700123707,space,0.266992395191,space,0.366994447773,space,0.466970053661,None,,j,0,4.2838397283,SPR,yu,B,,male,60.0079587462,001,2016_04_26_1307,
手機是個既方便又重要的發明,手機是個不好的發明?,的,又重要,發明,手機,既方便,j,是個,13,3,36,0,1,1,19,space,0.38349955278,space,0.483897121572,space,0.400058735344,space,0.450399029287,space,0.433596695031,space,0.433889582295,space,1.7838176236,j,1,1.40075898062,SPR,yu,B,,male,60.0079587462,001,2016_04_26_1307,
爺爺一句話就把大家逗開心了,爺爺把大家逗開心了?,逗,大家,開心了,爺爺,就把,f,一句話,12,3,33,0,2,2,16,space,0.31696322489,space,0.316886647895,space,0.617390161358,space,0.416872121947,space,0.316948619991,space,0.366923002228,space,0.316917041855,f,1,0.783607628968,SPR,yu,B,,male,60.0079587462,001,2016_04_26_1307,
指使搶匪的殺手發生了不測,殺手遭遇不測了？,發生了,殺手,不測,指使,的,f,搶匪,12,1,35,0,3,3,10,space,0.283901305673,space,0.250208218371,space,0.300249704153,space,0.30038627961,space,0.300107997246,space,0.817593603533,space,1.06736051737,f,1,0.933721823414,SPR,yu,B,,male,60.0079587462,001,2016_04_26_1307,
小周羞辱的導演做了壞事,導演做了不好的事？,做了,導演,壞事,小周,的,f,羞辱,11,2,5,0,4,4,4,space,0.233687719025,space,0.462964366438,space,0.400225310041,space,0.245907670251,space,0.350325531166,space,0.683722020782,space,0.866904055343,f,1,0.883460080098,SPR,yu,B,,male,60.0079587462,001,2016_04_26_1307,
小潘舉薦的水手開啟了旅程,水手開啟了旅程？,開啟了,水手,旅程,小潘,的,f,舉薦,12,2,7,0,5,5,6,space,0.206978532391,space,0.317033091524,space,0.350260401246,space,0.400216231326,space,0.766975816667,space,0.383649154217,space,0.550288584738,f,1,1.06700763165,SPR,yu,B,,male,60.0079587462,001,2016_04_26_1307,
和朋友們一起喝下午茶很開心,喝下午茶很開心?,下午茶,喝,很開心,和,一起,f,朋友們,13,3,39,0,6,6,22,space,0.25033966238,space,0.283544472681,space,0.333419383765,space,0.317065459123,space,0.300221678553,space,0.316844412133,space,0.416990934704,f,1,0.901931319124,SPR,yu,B,,male,60.0079587462,001,2016_04_26_1307,
小張崇拜的作家寫了首詩,作家會寫詩歌？,寫了,作家,詩歌,小張,的,f,崇拜,11,2,1,0,7,7,0,space,0.316889016256,space,0.317048880592,space,0.333769901132,space,0.416864622137,space,1.01691562084,space,0.383558761794,space,0.6169247785,f,1,2.51698864529,SPR,yu,B,,male,60.0079587462,001,2016_04_26_1307,
掩護戰士的村民躲進了樹洞,村民跑出了樹洞？,躲進了,村民,樹洞,掩護,的,j,戰士,12,1,40,0,8,8,15,space,0.266928054727,space,0.300136022845,space,0.3835323151,space,0.333640036028,space,0.450346530633,space,0.483511078797,space,1.11138597252,j,1,1.18348321109,SPR,yu,B,,male,60.0079587462,001,2016_04_26_1307,
房東厭惡的小孩吃了蘋果,房東扔掉蘋果？,吃了,小孩,蘋果,房東,的,j,厭惡,11,2,2,0,9,9,1,space,0.216861701163,space,0.317005855373,space,0.300295097732,space,0.31677296658,space,0.26684595157,space,0.433713928876,space,1.90046135664,j,1,1.56698394805,SPR,yu,B,,male,60.0079587462,001,2016_04_26_1307,
誣陷主人的管家怒斥了園丁,主人誇獎了園丁？,怒斥了,管家,園丁,誣陷,的,j,主人,12,1,34,0,10,10,9,space,0.266907528945,space,0.316881121726,space,0.350389082174,space,0.283807360713,space,0.400523328753,space,0.300126154674,space,0.750370451067,j,1,1.91734816243,SPR,yu,B,,male,60.0079587462,001,2016_04_26_1307,
招待船長的賓客接受了訪問,賓客接受了訪問？,接受了,賓客,訪問,招待,的,f,船長,12,1,37,0,11,11,12,space,0.250201508017,space,0.300324702235,space,0.266891345142,space,0.350321583901,space,0.333771874772,space,0.600161916926,space,0.750310847332,f,1,0.750242954324,SPR,yu,B,,male,60.0079587462,001,2016_04_26_1307,
領隊欽佩的組長煮了美食,組長討厭領隊？,煮了,組長,美食,領隊,的,j,欽佩,11,2,6,0,12,12,5,space,0.216796965971,space,0.300163653716,space,0.43369971872,space,0.316881911174,space,0.517048643756,space,1.05034739902,space,0.717019591866,j,1,1.21715340424,SPR,yu,B,,male,60.0079587462,001,2016_04_26_1307,
救治嬸嬸的鄰居染上了毒癮,嬸嬸染上了毒癮？,染上了,鄰居,毒癮,救治,的,j,嬸嬸,12,1,38,0,13,13,13,space,0.266669113975,space,0.350241059634,space,0.383619154985,space,1.01688838469,space,1.13396276464,space,0.350270664145,space,0.366859056492,j,1,1.61719082433,SPR,yu,B,,male,60.0079587462,001,2016_04_26_1307,
阿姨親手製作了一個生日蛋糕,阿姨沒做蛋糕?,生日,一個,蛋糕,阿姨,製作了,j,親手,13,3,38,0,14,14,21,space,0.25021887599,space,0.267092261063,space,0.283599339702,space,0.267438041716,space,0.266748848779,space,0.266859766998,space,0.33360174753,j,1,0.816962830155,SPR,yu,B,,male,60.0079587462,001,2016_04_26_1307,
弟弟傷害的同學打了老師,同學推開了老師？,打了,同學,老師,弟弟,的,j,傷害,11,2,4,0,15,15,3,space,0.266854240828,space,0.300128523035,space,0.283773414209,space,0.300197994948,space,0.366934844031,space,0.569932951708,space,0.47616324004,j,1,4.88602698826,SPR,yu,B,,male,60.0079587462,001,2016_04_26_1307,
聽說吃黑巧克力可以提高智商,巧克力不能提高智商?,提高,可以,智商,聽說,黑巧克力,j,吃,13,3,40,0,16,16,23,space,0.283742625521,space,0.266894502951,space,0.283800650352,space,0.416978303445,space,0.266870819352,space,0.333485303141,space,0.350443554467,j,1,2.10025033572,SPR,yu,B,,male,60.0079587462,001,2016_04_26_1307,
愛慕局長的學生考上了大學,學生考上了大學？,考上了,學生,大學,愛慕,的,f,局長,12,1,33,0,17,17,8,space,0.267050420029,space,0.266871608801,space,0.283625391668,space,0.316975066693,space,0.350341320234,space,0.466997289805,space,0.687654288828,f,1,0.700260677557,SPR,yu,B,,male,60.0079587462,001,2016_04_26_1307,
工人表揚的廠長漲了薪水,廠長上調了薪水？,漲了,廠長,薪水,工人,的,f,表揚,11,2,3,0,18,18,2,space,0.250283611182,space,0.21692288381,space,0.317088748001,space,0.366963659078,space,0.283581182266,space,0.98353278877,space,0.483676864038,f,1,0.833619510238,SPR,yu,B,,male,60.0079587462,001,2016_04_26_1307,
每年都會頒布新的法規制度,每年不會有新制度?,法規,的,制度,每年,新,j,都會頒布,12,3,34,0,19,19,17,space,0.333568590482,space,0.450328767925,space,0.36704023608,space,0.633641457047,space,0.400854504507,space,0.366636035869,space,0.450268374727,j,1,0.800168785172,SPR,yu,B,,male,60.0079587462,001,2016_04_26_1307,
留學的生活能夠磨礪人的意志,留學生活能鍛鍊人?,人的,磨礪,意志,留學的,能夠,f,生活,13,3,37,0,20,20,20,space,0.250295452985,space,0.300216152376,space,0.383624681162,space,0.600367569561,space,0.683614260379,space,0.583582603293,space,0.283537762327,f,1,1.19998910555,SPR,yu,B,,male,60.0079587462,001,2016_04_26_1307,
善待動物們是對生命的尊重,應該善待動物?,的,生命,尊重,善待,是對,f,動物們,12,3,35,0,21,21,18,space,0.268001711534,space,0.350219349661,space,0.3670051054,space,0.416838175443,space,0.450304294864,space,0.333579642829,space,0.333717797199,f,1,0.850422239222,SPR,yu,B,,male,60.0079587462,001,2016_04_26_1307,
徐總賞識的詩人獲得了好評,徐總獲得了好評？,獲得了,詩人,好評,徐總,的,j,賞識,12,2,8,0,22,22,7,space,0.250383082326,space,0.367160233021,space,0.450256927652,space,0.300231151989,space,0.300116681232,space,0.450341399184,space,0.725897391567,j,1,1.08360036599,SPR,yu,B,,male,60.0079587462,001,2016_04_26_1307,
賄賂小陳的企劃員擅長宣傳,小陳不懂宣傳？,擅長,企劃員,宣傳,賄賂,的,j,小陳,12,1,36,0,23,23,11,space,0.25046479077,space,0.500496960994,space,0.433641299154,space,0.333583195374,space,0.500420778728,space,0.617145036034,space,0.550398713502,j,1,1.65024129648,SPR,yu,B,,male,60.0079587462,001,2016_04_26_1307,
