Sentences,Question,word5,word4,word6,word1,word3,Ans,word2,lenth,Type,ID,practicetrials.thisRepN,practicetrials.thisTrialN,practicetrials.thisN,practicetrials.thisIndex,key_resp_12.keys,key_resp_12.rt,Atests1.keys,Atests1.rt,Atests2.keys,Atests2.rt,Atests3.keys,Atests3.rt,Atests4.keys,Atests4.rt,Atests5.keys,Atests5.rt,Atests6.keys,Atests6.rt,key_resp_8.keys,key_resp_8.corr,key_resp_8.rt,expName,participant,version,Grade,Gender,frameRate,session,date,
大腦裡的奧秘等著你們去解開,大腦的奧妙等待解開？,你們,等著,去解開,大腦裡,奧秘,f,的,13,3,19,0,0,0,18,space,0.517533762954,space,1.11708661647,space,0.650335636169,space,0.451141510335,space,0.434248388923,space,0.490360377643,space,0.533430988735,f,1,1.41911969616,SPR,wu,A,,male,59.9930378278,001,2016_04_28_0806,
小崔照顧的飛行員擊落了敵機,飛行員打落了敵機？,擊落了,飛行員,敵機,小崔,的,f,照顧,13,2,49,0,1,1,8,space,0.519900939371,space,0.767221336719,space,1.01739481913,space,0.884255849259,space,0.686057224329,space,0.683952935938,space,0.5507156791,f,1,1.76716410134,SPR,wu,A,,male,59.9930378278,001,2016_04_28_0806,
砍傷表弟的疑犯發現了秘密,疑犯發現了秘密？,發現了,疑犯,秘密,砍傷,的,f,表弟,12,1,21,0,2,2,4,space,0.450481527182,space,0.41714053615,space,0.518385583315,space,0.417230139125,space,0.333846478129,space,0.400512276397,space,0.500391174225,f,1,1.01718995594,SPR,wu,A,,male,59.9930378278,001,2016_04_28_0806,
辱罵農夫的木匠造出了新房,木匠造出了新房？,造出了,木匠,新房,辱罵,的,f,農夫,12,1,19,0,3,3,2,space,0.38365389094,space,0.600611115979,space,2.28382433396,space,0.584094958629,space,0.633908292341,space,0.600517565736,space,0.65077496706,f,1,1.00044446234,SPR,wu,A,,male,59.9930378278,001,2016_04_28_0806,
許多古生物學家著迷於恐龍,古生物學家討厭恐龍？,於,著迷,恐龍,許多,生物學家,j,古,12,3,22,0,4,4,21,space,0.51722903389,space,0.51714850963,space,0.467140180895,space,0.450465343385,space,0.486388242195,space,0.434166680482,space,0.417272769616,j,1,1.11786659656,SPR,wu,A,,male,59.9930378278,001,2016_04_28_0806,
雨後有時會見到漂亮的彩虹,雨後可能看到彩虹？,的,漂亮,彩虹,雨後,會見到,f,有時,12,3,21,0,5,5,20,space,0.417076590413,space,0.417176061558,space,0.467150443791,space,0.467265704007,space,0.500629589192,space,0.367226547112,space,0.483980803648,f,1,0.867371806562,SPR,wu,A,,male,59.9930378278,001,2016_04_28_0806,
政府輕視的逃亡者認清了事實,政府認清了事實？,認清了,逃亡者,事實,政府,的,j,輕視,13,2,56,0,6,6,15,space,0.385421872126,space,0.38395546219,space,0.400306229025,space,0.400507539676,space,0.533851767468,space,0.684042933641,space,1.30394553086,f,0,1.45111466892,SPR,wu,A,,male,59.9930378278,001,2016_04_28_0806,
迷戀老婆的編輯出版了新書,編輯出版了新書？,出版了,編輯,新書,迷戀,的,f,老婆,12,1,17,0,7,7,0,space,1.06746314634,space,0.733727981154,space,0.6384527816,space,0.617229507563,space,0.750453343691,space,0.836251548316,space,1.26721738945,f,1,0.833962922525,SPR,wu,A,,male,59.9930378278,001,2016_04_28_0806,
如果天氣好的話我就去野餐,天氣好就不去野餐？,就,我,去野餐,如果,的話,j,天氣好,12,3,24,0,8,8,23,space,0.38420690314,space,0.38370757378,space,0.501966134022,space,0.650231428303,space,0.601725824367,space,0.53396386987,space,0.734005079344,j,1,2.51829203307,SPR,wu,A,,male,59.9930378278,001,2016_04_28_0806,
交警驅趕的行政人員亂扔垃圾,行政人員亂扔垃圾？,亂扔,行政人員,垃圾,交警,的,f,驅趕,13,2,53,0,9,9,12,space,0.433938528411,space,0.417704995425,space,0.384060854236,space,0.383887963912,space,0.483505552621,space,0.500627615558,space,0.568075762277,j,0,2.7171439308,SPR,wu,A,,male,59.9930378278,001,2016_04_28_0806,
貴族拉攏的青年當上了執行長,貴族當上了執行長？,當上了,青年,執行長,貴族,的,j,拉攏,13,2,54,0,10,10,13,space,0.417291716501,space,0.417262901447,space,0.400700955792,space,0.450511921143,space,0.350863543746,space,0.934696009075,space,0.867194179517,j,1,2.55353521239,SPR,wu,A,,male,59.9930378278,001,2016_04_28_0806,
熟識表姐的院士解釋了理論,表姐解釋了理論？,解釋了,院士,理論,熟識,的,j,表姐,12,1,24,0,11,11,7,space,0.467219126249,space,0.400541091451,space,0.517055354113,space,0.450516657864,space,0.650623786709,space,0.767050025302,space,0.917033565196,j,1,1.86709549783,SPR,wu,A,,male,59.9930378278,001,2016_04_28_0806,
夏天是個非常美麗的季節,夏天是個美麗的季節？,的,美麗,季節,夏天,非常,f,是個,11,3,23,0,12,12,22,space,0.483923962994,space,0.400120312718,space,0.483590024149,space,0.383833096892,space,0.334123971046,space,0.383399292176,space,0.400709245054,f,1,0.886062908394,SPR,wu,A,,male,59.9930378278,001,2016_04_28_0806,
同情雇主的技工拿到了專利,雇主毆打了技工？,拿到了,技工,專利,同情,的,j,雇主,12,1,18,0,13,13,1,space,0.383974409074,space,0.350589998097,space,0.317231639087,space,0.467193863735,space,0.450173640304,space,0.517176140504,space,0.817978856855,j,1,1.51731982105,SPR,wu,A,,male,59.9930378278,001,2016_04_28_0806,
妹妹的個性一向是冷冰冰的,妹妹的個性熱情？,是,一向,冷冰冰的,妹妹,個性,j,的,11,3,20,0,14,14,19,space,0.500569985451,space,0.433938528411,space,0.368256783971,space,0.383825202357,space,0.350511842198,space,0.350578945748,space,0.633939870482,j,1,3.36744206793,SPR,wu,A,,male,59.9930378278,001,2016_04_28_0806,
隊長袒護的消防員聲援了遊行,隊長聲援了遊行？,聲援了,消防員,遊行,隊長,的,j,袒護,13,2,52,0,15,15,11,space,0.350523289274,space,0.319945385605,space,0.35055920941,space,0.366830241438,space,0.483971724932,space,0.400631878607,space,0.801782428185,f,0,2.31918474713,SPR,wu,A,,male,59.9930378278,001,2016_04_28_0806,
航海家資助的演員擔任了主角,演員當上了主角？,擔任了,演員,主角,航海家,的,f,資助,13,2,51,0,16,16,10,space,0.417168167023,space,0.53379295318,space,0.583706152764,space,0.435096262016,space,0.567263809319,space,0.537254706919,space,0.683892148016,f,1,2.80340672883,SPR,wu,A,,male,59.9930378278,001,2016_04_28_0806,
結識表哥的中醫師開了偏方,中醫生開錯了偏方？,開了,中醫師,偏方,結識,的,j,表哥,12,1,20,0,17,17,3,space,0.400525697107,space,0.437627644768,space,0.367969817612,space,0.367236810008,space,0.438936953452,space,0.467291755974,space,0.850814992354,j,1,2.38394125203,SPR,wu,A,,male,59.9930378278,001,2016_04_28_0806,
哥哥的體育特長是打羽毛球,哥哥不擅長打羽毛球？,是,特長,打羽毛球,哥哥,體育,j,的,12,3,18,0,18,18,17,space,0.38375770408,space,0.417182771914,space,0.367284966673,space,0.383936120578,space,0.603687221668,space,0.550576735278,space,0.751398319569,j,1,1.6344474891,SPR,wu,A,,male,59.9930378278,001,2016_04_28_0806,
小白忽视的企業家投資了廣告,企業家投資了廣告？,投資了,企業家,廣告,小白,的,f,忽視,13,2,55,0,19,19,14,space,0.384013881751,space,0.334060814763,space,0.39997978999,space,0.817477948589,space,0.517325347221,space,0.400494513693,space,0.435331519169,f,1,1.38425466508,SPR,wu,A,,male,59.9930378278,001,2016_04_28_0806,
小謝督促的技術員趕上了進度,技術員落下了進度？,趕上了,技術員,進度,小謝,的,j,督促,13,2,50,0,20,20,9,space,0.417193824263,space,0.809273158027,space,0.71845481839,space,0.717615629285,space,0.638262128572,space,0.550475685226,space,0.967188732288,j,1,1.96753451293,SPR,wu,A,,male,59.9930378278,001,2016_04_28_0806,
取笑小郭的廚師偷聽了對話,小郭表揚了廚師？,偷聽了,廚師,對話,取笑,的,j,小郭,12,1,22,0,21,21,5,space,0.433822873469,space,0.367219047303,space,0.317872675356,space,0.367191811157,space,0.367255362166,space,0.483805544964,space,0.683888990202,j,1,3.00274729829,SPR,wu,A,,male,59.9930378278,001,2016_04_28_0806,
有人明年要在高雄舉辦演唱會,高雄明年有演唱會？,舉辦,高雄,演唱會,有人,要在,f,明年,13,3,17,0,22,22,16,space,0.903266679772,space,0.500692745474,space,0.500553801653,space,0.383854017411,space,0.517224297169,space,0.41747486972,space,1.03398952711,f,1,1.11722200775,SPR,wu,A,,male,59.9930378278,001,2016_04_28_0806,
嘲笑上司的會計偽造了帳目,會計偽造了帳目？,偽造了,會計,帳目,嘲笑,的,f,上司,12,1,23,0,23,23,6,space,0.403613644599,space,0.350441580833,space,0.467085708602,space,0.36729641375,space,0.433798005683,space,0.433871819588,space,0.550484369215,f,1,0.983865148705,SPR,wu,A,,male,59.9930378278,001,2016_04_28_0806,
厭煩醫生的病人嘀咕了幾句,病人喜歡醫生？,嘀咕了,病人,幾句,厭煩,的,j,醫生,12,1,10,0,0,0,1,space,0.534402806034,space,0.533975711673,space,0.502431122153,space,0.667120997174,space,0.533916107931,space,0.533808742251,space,0.467217942068,j,1,2.71705866982,SPR,wu,A,,male,59.9930378278,001,2016_04_28_0806,
在地人尊敬的導遊受到了表揚,在地人不喜歡導遊？,受到了,導遊,表揚,在地人,的,j,尊敬,13,2,44,0,1,1,11,space,0.383870201208,space,0.38390414771,space,0.433806294945,space,0.523424270486,space,0.76724067833,space,0.717269453911,space,0.850846965222,j,1,2.85159220936,SPR,wu,A,,male,59.9930378278,001,2016_04_28_0806,
廣播員攔住的大叔拿錯了行李,廣播員拿錯了行李？,拿錯了,大叔,行李,廣播員,的,j,攔住,13,2,46,0,2,2,13,space,0.467324123568,space,0.617239375732,space,0.918021171565,space,0.433880503577,space,1.02021672078,space,0.435380465288,space,0.600804532095,j,1,1.70219128617,SPR,wu,A,,male,59.9930378278,001,2016_04_28_0806,
欺瞞群眾的主席失去了權力,群眾得到了權力？,失去了,主席,權力,欺瞞,的,j,群眾,12,1,16,0,3,3,7,space,0.483785019172,space,0.650564577694,space,0.500477619387,space,0.419471792431,space,0.467107418574,space,0.467238862587,space,0.568841137476,j,1,2.68792546611,SPR,wu,A,,male,59.9930378278,001,2016_04_28_0806,
為了進步就要不斷嚐試新方法,進步需要新方法？,嘗試,不斷,新方法,為了,就要,f,進步,13,3,15,0,4,4,22,space,0.400533196916,space,0.450569551251,space,0.550566472382,space,0.550519894624,space,0.400513460577,space,0.450697442723,space,0.733874030058,f,1,2.43405063081,SPR,wu,A,,male,59.9930378278,001,2016_04_28_0806,
我們週末約了一起去打籃球,我們週末不去打籃球？,打,一起去,籃球,我們,約了,j,週末,12,3,12,0,5,5,19,space,0.366993263593,space,0.467402279468,space,0.433809452759,space,0.417247507103,space,0.433831952184,space,0.550465817057,space,0.400616089536,j,1,1.73386929334,SPR,wu,A,,male,59.9930378278,001,2016_04_28_0806,
李老師今天看上去很不舒服,李老師今天不舒服？,很,上去,不舒服,李老師,看,f,今天,12,3,9,0,6,6,16,space,0.367166153917,space,0.433832346911,space,0.433884450844,space,0.51706916955,space,0.517330083943,space,0.383798755663,space,0.483468053579,f,1,1.5840487756,SPR,wu,A,,male,59.9930378278,001,2016_04_28_0806,
經常跑步能夠提高身體素質,跑步不利於健康？,身體,提高,素質,經常,能夠,j,跑步,12,3,14,0,7,7,21,space,0.367185100801,space,0.433307755039,space,0.483870280153,space,0.618534474252,space,0.534243731147,space,0.600544407156,space,0.517323373588,j,1,1.38394362039,SPR,wu,A,,male,59.9930378278,001,2016_04_28_0806,
兇嫌唆使的槍手瞄準了目標,槍手無法找到目標？,瞄準了,槍手,目標,兇嫌,的,j,唆使,12,2,42,0,8,8,9,space,0.417253822731,space,0.469072368416,space,0.483989882364,space,0.650235375571,space,0.450471264286,space,0.583896805792,space,0.550614234321,j,1,4.6056770393,SPR,wu,A,,male,59.9930378278,001,2016_04_28_0806,
嫉妒哥哥的富商觸犯了法律,哥哥違反了法律？,觸犯了,富商,法律,嫉妒,的,j,哥哥,12,1,14,0,9,9,5,space,0.400400963449,space,0.483888832312,space,0.583866411831,space,0.418009329762,space,0.683875964219,space,0.68372202078,space,0.733921791996,j,1,1.38385875413,SPR,wu,A,,male,59.9930378278,001,2016_04_28_0806,
邀請王總的政客出席了宴會,政客參加了宴會？,出席了,政客,宴會,邀請,的,f,王總,12,1,13,0,10,10,4,space,0.367229704926,space,0.43665582747,space,0.617328583981,space,0.570848323082,space,0.567175390523,space,0.583833254783,space,2.83480132218,f,1,2.26749290873,SPR,wu,A,,male,59.9930378278,001,2016_04_28_0806,
維護隊員的教練得罪了評審,教練得罪了評審？,得罪了,教練,評審,維護,的,f,隊員,12,1,15,0,11,11,6,space,0.500560512008,space,0.500524986599,space,0.522317061907,space,0.550790282459,space,0.733551933016,space,0.617211350131,space,0.919128774871,f,1,1.40136843875,SPR,wu,A,,male,59.9930378278,001,2016_04_28_0806,
這個問題同學們一起討論過,同學們沒討論問題？,一起,們,討論過,這個,同學,j,問題,12,3,16,0,12,12,23,space,0.583629181045,space,0.633952501739,space,0.51720219247,space,0.63402315783,space,0.500555775287,space,0.533856504189,space,0.550213586653,j,1,1.45058849814,SPR,wu,A,,male,59.9930378278,001,2016_04_28_0806,
拜訪總統的老人遭遇了車禍,老人遭遇了車禍？,遭遇了,老人,車禍,拜訪,的,f,總統,12,1,11,0,13,13,2,space,0.450288111067,space,0.618066723034,space,0.483794097888,space,0.400595563745,space,0.484051459739,space,0.400526486561,space,0.600525854998,f,1,0.80062232622,SPR,wu,A,,male,59.9930378278,001,2016_04_28_0806,
認識張三的司機違反了規定,司機不遵守規定？,違反了,司機,規定,認識,的,f,張三,12,1,9,0,14,14,0,space,0.417216323689,space,0.500155522346,space,0.533916897385,space,0.417996698505,space,0.367446804647,space,0.516947198979,space,0.634291572031,f,1,1.26862735346,SPR,wu,A,,male,59.9930378278,001,2016_04_28_0806,
新發芽的種子需要很多肥料,種子需要肥料？,很多,需要,肥料,新發芽,種子,f,的,12,3,13,0,15,15,20,space,0.383997697953,space,0.567143417655,space,0.433421041621,space,0.500553406926,space,0.433951949121,space,0.539325838261,space,0.550500553012,f,1,0.767844610283,SPR,wu,A,,male,59.9930378278,001,2016_04_28_0806,
舞者羨慕的造型師登上了雜誌,在雜誌上能看到舞者？,登上了,造型師,雜誌,舞者,的,j,羨慕,13,2,48,0,16,16,15,space,0.350499210941,space,0.503285310875,space,0.550532920607,space,0.487168617012,space,0.533865977632,space,0.533870714353,space,0.633985658787,j,1,2.16845675255,SPR,wu,A,,male,59.9930378278,001,2016_04_28_0806,
欣賞小王的村長參加了競選,小王不想去競選？,參加了,村長,競選,欣賞,的,j,小王,12,1,12,0,17,17,3,space,0.333807794906,space,0.500210784093,space,0.467244388762,space,0.617214507945,space,0.533822557687,space,0.550663575167,space,0.617163193466,f,0,3.91792051624,SPR,wu,A,,male,59.9930378278,001,2016_04_28_0806,
老闆害怕的藥劑師調配了新藥,藥劑師調配了新藥？,調配了,藥劑師,新藥,老闆,的,f,害怕,13,2,43,0,18,18,10,space,0.467412542364,space,0.700506592332,space,0.634085524659,space,0.900513065851,space,1.13397776425,space,0.767138444098,space,2.65280465209,f,1,1.03344954089,SPR,wu,A,,male,59.9930378278,001,2016_04_28_0806,
室友鼓足勇氣參加了圍棋比賽,室友參加了比賽？,圍棋,參加了,比賽,室友,勇氣,f,鼓足,13,3,11,0,19,19,18,space,0.517605997952,space,0.567147364923,space,0.567881556708,space,0.416856727604,space,0.433841425627,space,0.53388689815,space,1.08388575344,f,1,1.18383964936,SPR,wu,A,,male,59.9930378278,001,2016_04_28_0806,
科學家佩服的商人買下了產品,商人買下了產品？,買下了,商人,產品,科學家,的,f,佩服,13,2,45,0,20,20,12,space,0.417190271722,space,0.733918239455,space,0.567221573555,space,0.500395121493,space,0.817211902749,space,0.534918713917,space,0.817220192011,f,1,1.33387095119,SPR,wu,A,,male,59.9930378278,001,2016_04_28_0806,
小金關心的助教迷上了遊戲,助教喜歡打遊戲？,迷上了,助教,遊戲,小金,的,f,關心,12,2,41,0,21,21,8,space,0.434099971658,space,0.800524039255,space,0.650545236082,space,0.450404950189,space,0.417443686306,space,0.483845412367,space,0.534139918007,f,1,1.18382583392,SPR,wu,A,,male,59.9930378278,001,2016_04_28_0806,
鄰居的奶奶一個字也不認識,鄰居的奶奶識字？,也,一個字,不認識,鄰居,奶奶,j,的,12,3,10,0,22,22,17,space,0.383827570717,space,0.41746144901,space,0.450645733517,space,0.617270559146,space,0.617181350897,space,0.483795676795,space,0.500788269352,j,1,0.950479158822,SPR,wu,A,,male,59.9930378278,001,2016_04_28_0806,
女婿讚賞的工程師籌辦了晚宴,工程師舉辦了一場晚宴？,籌辦了,工程師,晚宴,女婿,的,f,讚賞,13,2,47,0,23,23,14,space,0.400558854156,space,0.533918081565,space,0.617261480431,space,0.517465080497,space,0.50051630261,space,0.650556683158,space,0.738501411938,f,1,1.51751284244,SPR,wu,A,,male,59.9930378278,001,2016_04_28_0806,
司機們大部分都比較好說話,司機們討厭說話？,好,比較,說話,司機們,都,j,大部分,12,3,2,0,0,0,17,space,0.636601907793,space,0.917264480354,space,0.734032315491,space,0.500764585746,space,0.383437975399,space,0.735449779308,space,0.600580722018,j,1,2.80275621912,SPR,wu,A,,male,59.9930378278,001,2016_04_28_0806,
嬸嬸救治的鄰居染上了毒癮,嬸嬸染上了毒癮？,染上了,鄰居,毒癮,嬸嬸,的,j,救治,12,2,38,0,1,1,13,space,0.417130273254,space,0.550740152159,space,0.63383763625,space,0.549873726907,space,0.517077064085,space,0.500935897163,space,1.30122862653,j,1,1.48395198859,SPR,wu,A,,male,59.9930378278,001,2016_04_28_0806,
公園裡擠滿了玩鬧的小孩,公園裡有小孩？,的,玩鬧,小孩,公園裡,滿了,f,擠,11,3,7,0,2,2,22,space,0.400522144566,space,0.533798084628,space,1.13516865491,space,0.400502802955,space,0.383804281838,space,0.383713889409,space,0.500513539523,f,1,1.15381396843,SPR,wu,A,,male,59.9930378278,001,2016_04_28_0806,
傷害弟弟的同學打了老師,同學推開了老師？,打了,同學,老師,傷害,的,j,弟弟,11,1,4,0,3,3,3,space,0.350536709984,space,0.600491908496,space,0.634058683239,space,0.400597537379,space,0.634023947284,space,0.583828123335,space,0.453639736038,f,0,6.43810250107,SPR,wu,A,,male,59.9930378278,001,2016_04_28_0806,
茶餐廳裡有很多好吃的甜點,茶餐廳裡有甜點？,的,好吃,甜點,茶餐廳裡,很多,f,有,12,3,5,0,4,4,20,space,0.500666298781,space,1.06719907413,space,0.434045499365,space,0.416780150612,space,0.533826899682,space,0.383778624598,space,0.500646167716,f,1,1.15469934057,SPR,wu,A,,male,59.9930378278,001,2016_04_28_0806,
崇拜小張的作家寫了首詩,作家會寫詩歌？,寫了,作家,詩歌,崇拜,的,f,小張,11,1,1,0,5,5,0,space,0.384587814469,space,0.383717836676,space,0.450652838598,space,0.467133865267,space,0.567162759266,space,0.518897149204,space,0.700476198371,f,1,0.986353111513,SPR,wu,A,,male,59.9930378278,001,2016_04_28_0806,
羞辱小周的導演做了壞事,導演做了不好的事？,做了,導演,壞事,羞辱,的,f,小周,11,1,5,0,6,6,4,space,0.400554117434,space,0.333951870176,space,0.450711652887,space,0.417335925899,space,0.534029394513,space,0.435258099991,space,0.500562485642,f,1,2.03411544495,SPR,wu,A,,male,59.9930378278,001,2016_04_28_0806,
船長招待的賓客接受了訪問,賓客接受了訪問？,接受了,賓客,訪問,船長,的,f,招待,12,2,37,0,7,7,12,space,0.383850070143,space,0.552228272068,space,0.517234560065,space,0.450952041487,space,0.467629642085,space,0.417288953414,space,0.450729415591,f,1,0.834039894245,SPR,wu,A,,male,59.9930378278,001,2016_04_28_0806,
小陳賄賂的企劃員擅長宣傳,小陳不懂宣傳？,擅長,企劃員,宣傳,小陳,的,j,賄賂,12,2,36,0,8,8,11,space,0.486031803925,space,0.667100471383,space,0.53390031886,space,0.383961777818,space,0.517953357506,space,0.450503631881,space,0.45006193263,j,1,5.65867147602,SPR,wu,A,,male,59.9930378278,001,2016_04_28_0806,
局長愛慕的學生考上了大學,學生考上了大學？,考上了,學生,大學,局長,的,f,愛慕,12,2,33,0,9,9,8,space,0.41718316664,space,0.600502171392,space,0.668078999036,space,0.550542788776,space,0.683794255778,space,0.63389250327,space,0.850450659549,f,1,1.20062658927,SPR,wu,A,,male,59.9930378278,001,2016_04_28_0806,
究竟存不存在外星人仍是個謎,還沒法確定外星人的存在？,是個,仍,謎,究竟,外星人,f,存不存在,13,3,3,0,10,10,18,space,0.416958172384,space,0.533880582522,space,0.617286348217,space,0.400524907654,space,0.367198126785,space,0.402395517799,space,0.450537183656,f,1,1.06746946196,SPR,wu,A,,male,59.9930378278,001,2016_04_28_0806,
表揚工人的廠長漲了薪水,廠長上調了薪水？,漲了,廠長,薪水,表揚,的,f,工人,11,1,3,0,11,11,2,space,0.500543933484,space,0.434004053054,space,0.51731942632,space,0.400473593174,space,0.417496974419,space,0.500837215471,space,0.533865582905,j,0,4.08423824444,SPR,wu,A,,male,59.9930378278,001,2016_04_28_0806,
主人誣陷的管家怒斥了園丁,主人誇獎了園丁？,怒斥了,管家,園丁,主人,的,j,誣陷,12,2,34,0,12,12,9,space,0.50063353646,space,2.05054713077,space,0.717233928503,space,0.567143812382,space,0.883870990662,space,1.05061383959,space,0.917218692049,j,1,3.03809310657,SPR,wu,A,,male,59.9930378278,001,2016_04_28_0806,
刺客襲擊的鐵匠鑄造了寶劍,鐵匠救了刺客？,鑄造了,鐵匠,寶劍,刺客,的,f,襲擊,12,2,39,0,13,13,14,space,0.383780203505,space,0.350515394739,space,0.417523815839,space,0.450734547039,space,0.566658298459,space,0.550751993962,space,1.35069854796,j,0,2.65963737241,SPR,wu,A,,male,59.9930378278,001,2016_04_28_0806,
傳統小說有很多精華的部分,小說裡沒有精華？,的,精華,部分,傳統小說,很多 ,j,有 ,12,3,6,0,14,14,21,space,0.683922541977,space,0.74973454625,space,0.717636155077,space,0.633887371822,space,0.883883621918,space,0.617303716195,space,0.900726613031,j,1,1.38390493716,SPR,wu,A,,male,59.9930378278,001,2016_04_28_0806,
舉薦小潘的水手開啟了旅程,水手開啟了旅程？,開啟了,水手,旅程,舉薦,的,f,小潘,12,1,7,0,15,15,6,space,0.416930936237,space,0.650834570802,space,0.516833122944,space,0.366858267039,space,0.384049012433,space,0.550501737193,space,0.634005789852,f,1,0.883724152304,SPR,wu,A,,male,59.9930378278,001,2016_04_28_0806,
欽佩領隊的組長煮了美食,組長討厭領隊？,煮了,組長,美食,欽佩,的,j,領隊,11,1,6,0,16,16,5,space,0.400758191172,space,0.565965552985,space,0.534546486576,space,0.367205626593,space,0.633778032508,space,0.50054314403,space,0.583853780575,j,1,2.06748801412,SPR,wu,A,,male,59.9930378278,001,2016_04_28_0806,
老師這次沒有劃考試的重點,老師給了考試重點？,考試,提示,重點,老師,沒有,j,這次,12,3,4,0,17,17,19,space,0.433911686991,space,2.21719169274,space,0.683924910338,space,0.450700995264,space,0.484289874706,space,0.500668667142,space,0.524171488254,j,1,1.27002784403,SPR,wu,A,,male,59.9930378278,001,2016_04_28_0806,
搶匪指使的殺手發生了不測,殺手遭遇不測了？,發生了,殺手,不測,搶匪,的,f,指使,12,2,35,0,18,18,10,space,0.452130695611,space,0.384519921465,space,0.583928383933,space,0.450654022779,space,0.417445265213,space,0.467203731905,space,1.21800325097,f,1,3.43501613248,SPR,wu,A,,male,59.9930378278,001,2016_04_28_0806,
叔叔有很多棟房子和別墅,叔叔沒有很多房子？,和,房子,別墅,叔叔,很多棟,j,有,11,3,8,0,19,19,23,space,0.434013526497,space,0.450655996413,space,0.470389571635,space,0.517231007524,space,0.784109326683,space,0.383908489704,space,0.333895424248,j,1,2.73761485562,SPR,wu,A,,male,59.9930378278,001,2016_04_28_0806,
戰士掩護的村民躲進了樹洞,村民跑出了樹洞？,躲進了,村民,樹洞,戰士,的,j,掩護,12,2,40,0,20,20,15,space,0.402823006886,space,0.384666759822,space,0.483967382938,space,0.46743622597,space,0.433875766855,space,0.601181496157,space,0.650600892556,j,1,3.70207602595,SPR,wu,A,,male,59.9930378278,001,2016_04_28_0806,
厭惡房東的小孩吃了蘋果,房東扔掉蘋果？,吃了,小孩,蘋果,厭惡,的,j,房東,11,1,2,0,21,21,1,space,0.388573370627,space,0.667205863429,space,0.633929607586,space,0.400713192321,space,0.517321399954,space,0.550821071146,space,0.600485592868,j,1,2.0505917349,SPR,wu,A,,male,59.9930378278,001,2016_04_28_0806,
賞識徐總的詩人獲得了好評,徐總獲得了好評？,獲得了,詩人,好評,賞識,的,j,徐總,12,1,8,0,22,22,7,space,0.367277072138,space,0.567214073746,space,0.550556604213,space,0.383899410989,space,0.634004210945,space,0.46706755117,space,0.53404320995,j,1,3.58394219937,SPR,wu,A,,male,59.9930378278,001,2016_04_28_0806,
警察逮捕了正在逃跑的罪犯,罪犯正在逃跑？,的,逃跑,罪犯,警察,正在,f,逮捕了,12,3,1,0,23,23,16,space,0.383938094212,space,0.484321452847,space,0.517228639164,space,0.550550288585,space,0.400944896933,space,0.417403818902,space,0.61714069404,f,1,3.10319341848,SPR,wu,A,,male,59.9930378278,001,2016_04_28_0806,
熟悉顧客的職工推薦了商品,職工推薦了商品？,推薦了,職工,商品,熟悉,的,f,顧客,12,1,25,0,0,0,0,space,0.774695882763,space,1.73536254469,space,0.866802215838,space,0.600377437734,space,0.967237678406,space,0.686786284666,space,0.85058605083,f,1,1.81744281791,SPR,wu,A,,male,59.9930378278,001,2016_04_28_0806,
今天爸爸買了一籃新鮮的水果,爸爸今天買了水果？,的,新鮮,各種水果,今天,買了,f,爸爸,13,3,27,0,1,1,18,space,0.433788926967,space,0.551009750541,space,0.518571499622,space,0.500563669822,space,0.5685111459,space,0.600287440031,space,0.566431330569,f,1,0.784124721027,SPR,wu,A,,male,59.9930378278,001,2016_04_28_0806,
鄉村的風景迷人且空氣新鮮,鄉村的風景很好？,空氣,且,新鮮,鄉村的,迷人,f,風景,12,3,29,0,2,2,20,space,0.417107379101,space,0.650802203207,space,0.517219165721,space,0.667334939082,space,0.435674931456,space,0.534184916859,space,0.450491000624,f,1,1.70241825406,SPR,wu,A,,male,59.9930378278,001,2016_04_28_0806,
親近孩子的阿姨迷失了方向,阿姨迷路了？,迷失了,阿姨,方向,親近,的,f,孩子,12,1,27,0,3,3,2,space,0.417286190326,space,0.350490526952,space,0.450542709831,space,0.40071082396,space,0.467233731139,space,0.483865938159,space,0.533975316946,f,1,1.16749204033,SPR,wu,A,,male,59.9930378278,001,2016_04_28_0806,
業務員撞見的藝人衝進了現場,藝人闖進了現場？,衝進了,藝人,現場,業務員,的,f,撞見,13,2,63,0,4,4,14,space,0.383837438887,space,0.700548038642,space,0.433833531092,space,0.433830373277,space,0.517527842052,space,0.469934451673,space,0.484735521225,f,1,0.853960569954,SPR,wu,A,,male,59.9930378278,001,2016_04_28_0806,
參加國際會議是令人高興的事,參加會議讓人不開心？,的,令人高興,事,參加,是,j,國際會議,13,3,28,0,5,5,19,space,0.367264440881,space,0.55067778533,space,1.05056726184,space,0.551373293892,space,0.733990474454,space,0.550743309973,space,0.550743309973,j,1,1.15076549362,SPR,wu,A,,male,59.9930378278,001,2016_04_28_0806,
弟弟花光了所有的零花錢,弟弟存了些零花錢？,的,所有,零花錢,弟弟,光了,j,花,11,3,30,0,6,6,21,space,0.384013092297,space,0.500544722937,space,0.367434173391,space,0.550491869024,space,0.366909186792,space,0.400514250031,space,0.483817781494,j,1,1.21836758378,SPR,wu,A,,male,59.9930378278,001,2016_04_28_0806,
家長們準備了豐盛的晚餐,家長沒有準備食物？,的,豐盛,晚餐,家長們,了,j,準備,11,3,32,0,7,7,23,space,0.383837438887,space,0.567278414209,space,0.450524947126,space,0.583553788232,space,0.48500590906,space,0.367286150853,space,0.584820466425,j,1,1.00116365451,SPR,wu,A,,male,59.9930378278,001,2016_04_28_0806,
惹怒上尉的服務員扔了盤子,盤子是上尉扔的？,扔了,服務員,盤子,惹怒,的,j,上尉,12,1,30,0,8,8,5,space,0.36736470148,space,0.667364148863,space,0.417211192241,space,0.367258914707,space,0.433893134833,space,0.484005276707,space,0.636280600206,j,1,1.80059035335,SPR,wu,A,,male,59.9930378278,001,2016_04_28_0806,
信任市民的委員爭到了選票,委員放棄了選票？,爭到了,委員,選票,信任,的,j,市民,12,1,28,0,9,9,3,space,0.417384477291,space,0.48397448802,space,0.552497080996,space,0.367142865037,space,0.417061985523,space,0.483850149088,space,0.58396904079,j,1,1.20054093356,SPR,wu,A,,male,59.9930378278,001,2016_04_28_0806,
協助叔叔的警察破了大案件,警察偵破了大案件？,破了,警察,大案件,協助,的,f,叔叔,12,1,31,0,10,10,6,space,0.483873437968,space,0.484005671434,space,0.450754283378,space,0.517366004078,space,0.467241625674,space,0.350490526952,space,0.450715994881,f,1,0.853303349888,SPR,wu,A,,male,59.9930378278,001,2016_04_28_0806,
他一邊寫作業一邊看著電視,他不能同時做兩件事？,看著,一邊,電視,他,寫作業,j,一邊,12,3,26,0,11,11,17,space,0.450561656716,space,0.367185100801,space,0.400601484646,space,0.433795637322,space,0.400470040633,space,0.484147378343,space,0.400584116669,j,1,2.56800471146,SPR,wu,A,,male,59.9930378278,001,2016_04_28_0806,
檢舉犯人的同伴知道了敵情,犯人知道了敵情？,知道了,同伴,敵情,檢舉,的,j,犯人,12,1,26,0,12,12,1,space,0.333821610343,space,0.350538683618,space,0.384057301695,space,0.367260098887,space,0.400669772377,space,0.43397286964,space,0.51726574348,j,1,8.1696180387,SPR,wu,A,,male,59.9930378278,001,2016_04_28_0806,
碰見駕駛員的盜賊撕了名畫,駕駛員毀壞了名畫？,撕了,盜賊,名畫,碰見,的,j,駕駛員,12,1,32,0,13,13,7,space,0.350050011881,space,0.41746026483,space,0.434177338105,space,0.650522736657,space,0.417134615248,space,0.783919463109,space,1.23392534454,j,1,1.21749563235,SPR,wu,A,,male,59.9930378278,001,2016_04_28_0806,
批評小吳的評論家說了粗話,評論家說了粗話？,說了,評論家,粗話,批評,的,f,小吳,12,1,29,0,14,14,4,space,0.333886345533,space,0.544246502129,space,0.600622957782,space,0.433860372512,space,0.967605563753,space,0.417296058495,space,0.469914715335,j,0,0.950597576851,SPR,wu,A,,male,59.9930378278,001,2016_04_28_0806,
治療師責備的婦女察覺了動靜,治療師察覺了動靜？,察覺了,婦女,動靜,治療師,的,j,責備,13,2,62,0,15,15,13,space,0.317103352888,space,0.583983250954,space,1.95491944021,space,0.550635944293,space,0.567215257926,space,0.550457527795,space,0.517464291043,j,1,1.8674858826,SPR,wu,A,,male,59.9930378278,001,2016_04_28_0806,
小明責罵的管理員掄起了拳頭,管理員握起了拳頭？,掄起了,管理員,拳頭,小明,的,f,責罵,13,2,59,0,16,16,10,space,0.367127075967,space,0.483925147174,space,0.483821334034,space,0.584176272342,space,0.600739796905,space,0.750747809859,space,0.68663076232,j,0,2.56925323222,SPR,wu,A,,male,59.9930378278,001,2016_04_28_0806,
大姑姑捧紅的明星拍攝了新片,大姑姑拍攝了新片？,拍攝了,明星,新片,大姑姑,的,j,捧紅,13,2,60,0,17,17,11,space,0.300541801959,space,0.483954356955,space,0.3672853614,space,0.36740259525,space,0.382901146997,space,0.483044117032,space,0.601855294746,j,1,1.99968500804,SPR,wu,A,,male,59.9930378278,001,2016_04_28_0806,
聖誕節是個令人快樂的節日,聖誕節讓人快樂？,的,快樂,節日,聖誕節,令人,f,是個,12,3,25,0,18,18,16,space,0.333951475449,space,0.400531223282,space,0.400415963066,space,0.333976737962,space,0.267256862127,space,0.350991829945,space,0.367034709903,f,1,1.05053923624,SPR,wu,A,,male,59.9930378278,001,2016_04_28_0806,
空服員侮辱的旅客拿出了凶器,空服員把凶器藏了起來？,拿出了,旅客,凶器,空服員,的,j,侮辱,13,2,58,0,19,19,9,space,0.383935725851,space,0.333832267966,space,0.40054859126,space,0.367139312496,space,0.317198087312,space,0.400547407079,space,0.517332057577,j,1,3.56692829157,SPR,wu,A,,male,59.9930378278,001,2016_04_28_0806,
主播討好的發言人處理了糾紛,發言人擺平了糾紛？,處理了,發言人,糾紛,主播,的,f,討好,13,2,57,0,20,20,8,space,0.333790032202,space,0.333982658864,space,0.31742663411,space,0.334093577085,space,0.45051468423,space,0.700574485335,space,1.11730055838,f,1,1.06724367825,SPR,wu,A,,male,59.9930378278,001,2016_04_28_0806,
代理商詆毀的律師吃上了官司,律師碰上了官司？,吃上了,律師,官司,代理商,的,f,詆毀,13,2,61,0,21,21,12,space,0.417181193006,space,0.651650076301,space,0.78385946464,space,0.519800284045,space,0.500713665993,space,0.452675023822,space,0.417212376421,f,1,2.46749977698,SPR,wu,A,,male,59.9930378278,001,2016_04_28_0806,
孩子們快樂地享受著陽光,孩子們喜歡陽光？,著,享受,陽光,孩子們,的,f,快樂,11,3,31,0,22,22,22,space,0.334473698961,space,0.750492026914,space,0.400603063553,space,0.417219086776,space,0.417419607973,space,0.385060302408,space,0.350615655337,f,1,1.31705006477,SPR,wu,A,,male,59.9930378278,001,2016_04_28_0806,
小林支持的研究員分析了案例,小林不懂分析案例？,分析了,研究員,案例,小林,的,j,支持,13,2,64,0,23,23,15,space,0.336531014866,space,0.334071472386,space,0.433847741255,space,0.350427765396,space,0.484107905667,space,0.433973659093,space,0.500531696954,j,1,6.89076213055,SPR,wu,A,,male,59.9930378278,001,2016_04_28_0806,
