Sentences,Question,word5,word4,word6,word1,word3,Ans,word2,lenth,Type,ID,practicetrials.thisRepN,practicetrials.thisTrialN,practicetrials.thisN,practicetrials.thisIndex,key_resp_12.keys,key_resp_12.rt,Atests1.keys,Atests1.rt,Atests2.keys,Atests2.rt,Atests3.keys,Atests3.rt,Atests4.keys,Atests4.rt,Atests5.keys,Atests5.rt,Atests6.keys,Atests6.rt,key_resp_8.keys,key_resp_8.corr,key_resp_8.rt,expName,participant,version,Grade,Gender,frameRate,session,date,
如果天氣好的話我就去野餐,天氣好就不去野餐？,就,我,去野餐,如果,的話,j,天氣好,12,3,24,0,0,0,23,space,0.584075554158,space,0.40077595695,space,0.300456937519,space,0.367177076725,space,0.300515752024,space,0.284027160465,space,0.350419675146,j,1,1.70061277624,SPR,31,A,,female,59.9906700808,001,2016_11_23_1610,
迷戀老婆的編輯出版了新書,編輯出版了新書？,出版了,編輯,新書,迷戀,的,f,老婆,12,1,17,0,1,1,0,space,0.30020707447,space,0.217128604068,space,0.28384045398,space,0.400138865429,space,0.350705063727,space,0.800346413598,space,0.667287442746,f,1,0.900262020674,SPR,31,A,,female,59.9906700808,001,2016_11_23_1610,
政府輕視的逃亡者認清了事實,政府認清了事實？,認清了,逃亡者,事實,政府,的,j,輕視,13,2,56,0,2,2,15,space,0.317140919593,space,0.233824822732,space,0.283839664509,space,0.400427017099,space,0.317266048456,space,0.450430806493,space,0.783849927451,j,1,1.58384898011,SPR,31,A,,female,59.9906700808,001,2016_11_23_1610,
結識表哥的中醫師開了偏方,中醫生開錯了偏方？,開了,中醫師,偏方,結識,的,j,表哥,12,1,20,0,3,3,3,space,0.300527593878,space,0.28280271322,space,0.30123336814,space,0.333719114482,space,0.317150393064,space,0.867203128786,space,0.117158919224,j,1,1.550534699,SPR,31,A,,female,59.9906700808,001,2016_11_23_1610,
許多古生物學家著迷於恐龍,古生物學家討厭恐龍？,於,著迷,恐龍,許多,生物學家,j,古,12,3,22,0,4,4,21,space,0.417177708267,space,0.267146998405,space,0.250566435134,space,0.300440753665,space,0.416972844279,space,0.350820324384,space,0.383843296004,j,1,1.38395658304,SPR,31,A,,female,59.9906700808,001,2016_11_23_1610,
嘲笑上司的會計偽造了帳目,會計偽造了帳目？,偽造了,會計,帳目,嘲笑,的,f,上司,12,1,23,0,5,5,6,space,0.366857346758,space,0.583895558055,space,0.350463884737,space,0.350546382921,space,0.400498857663,space,0.51724054903,space,0.76711699905,f,1,0.967119130568,SPR,31,A,,female,59.9906700808,001,2016_11_23_1610,
小崔照顧的飛行員擊落了敵機,飛行員打落了敵機？,擊落了,飛行員,敵機,小崔,的,f,照顧,13,2,49,0,6,6,8,space,0.300545356644,space,0.26722318097,space,0.31730315293,space,0.400506752223,space,0.40064806494,space,0.51719357635,space,0.73387376903,f,1,1.1335365921,SPR,31,A,,female,59.9906700808,001,2016_11_23_1610,
隊長袒護的消防員聲援了遊行,隊長聲援了遊行？,聲援了,消防員,遊行,隊長,的,j,袒護,13,2,52,0,7,7,11,space,0.283796244417,space,0.283844401274,space,0.300272599357,space,0.450617513008,space,0.333862400876,space,0.417220338917,space,0.683920110139,j,1,1.33408660657,SPR,31,A,,female,59.9906700808,001,2016_11_23_1610,
小白忽视的企業家投資了廣告,企業家投資了廣告？,投資了,企業家,廣告,小白,的,f,忽視,13,2,55,0,8,8,14,space,0.250436964241,space,0.300707195274,space,0.250541172543,space,0.383927767893,space,0.317136577592,space,0.983910084033,space,0.617312468501,f,1,1.61721260226,SPR,31,A,,female,59.9906700808,001,2016_11_23_1610,
夏天是個非常美麗的季節,夏天是個美麗的季節？,的,美麗,季節,夏天,非常,f,是個,11,3,23,0,9,9,22,space,0.633745798114,space,0.350470989826,space,0.267288705858,space,0.350512041565,space,0.250627618021,space,0.283806112595,space,0.26719712888,f,1,0.733853243146,SPR,31,A,,female,59.9906700808,001,2016_11_23_1610,
辱罵農夫的木匠造出了新房,木匠造出了新房？,造出了,木匠,新房,辱罵,的,f,農夫,12,1,19,0,10,10,2,space,0.250931164133,space,0.267098446813,space,0.217205576075,space,0.267279232386,space,0.267099236255,space,0.300749036483,space,0.400331492827,f,1,0.650405701745,SPR,31,A,,female,59.9906700808,001,2016_11_23_1610,
貴族拉攏的青年當上了執行長,貴族當上了執行長？,當上了,青年,執行長,貴族,的,j,拉攏,13,2,54,0,11,11,13,space,0.267182129232,space,0.250463016302,space,0.250507620629,space,0.383812112501,space,0.483856006264,space,0.616888925026,space,0.567138945946,j,1,1.40054267249,SPR,31,A,,female,59.9906700808,001,2016_11_23_1610,
妹妹的個性一向是冷冰冰的,妹妹的個性熱情？,是,一向,冷冰冰的,妹妹,個性,j,的,11,3,20,0,12,12,19,space,0.267120156874,space,0.267145419493,space,0.283713746176,space,0.28367151026,space,0.267143051111,space,0.217117946391,space,0.450514488912,j,1,0.900498857663,SPR,31,A,,female,59.9906700808,001,2016_11_23_1610,
交警驅趕的行政人員亂扔垃圾,行政人員亂扔垃圾？,亂扔,行政人員,垃圾,交警,的,f,驅趕,13,2,53,0,13,13,12,space,0.283731508971,space,0.267107525578,space,0.334036476066,space,0.283800191683,space,0.267216075852,space,0.483811007231,space,0.566877241072,f,1,1.01721607585,SPR,31,A,,female,59.9906700808,001,2016_11_23_1610,
熟識表姐的院士解釋了理論,表姐解釋了理論？,解釋了,院士,理論,熟識,的,j,表姐,12,1,24,0,14,14,7,space,0.251007741404,space,0.250493410422,space,0.234367968922,space,0.384192630561,space,0.384025265783,space,0.417124025233,space,0.983732851018,j,1,1.03392611002,SPR,31,A,,female,59.9906700808,001,2016_11_23_1610,
大腦裡的奧秘等著你們去解開,大腦的奧妙等待解開？,你們,等著,去解開,大腦裡,奧秘,f,的,13,3,19,0,15,15,18,space,0.467381624941,space,0.267297784652,space,0.31730749493,space,0.317157892918,space,0.333925162675,space,0.28381440189,space,0.333576617559,f,1,1.36725089091,SPR,31,A,,female,59.9906700808,001,2016_11_23_1610,
小謝督促的技術員趕上了進度,技術員落下了進度？,趕上了,技術員,進度,小謝,的,j,督促,13,2,50,0,16,16,9,space,0.266716744547,space,0.217475965008,space,0.20039883352,space,0.28380650733,space,0.38354409195,space,0.700456463848,space,0.700530278031,f,0,2.38394750431,SPR,31,A,,female,59.9906700808,001,2016_11_23_1610,
哥哥的體育特長是打羽毛球,哥哥不擅長打羽毛球？,是,特長,打羽毛球,哥哥,體育,j,的,12,3,18,0,17,17,17,space,0.233800349553,space,0.267195944703,space,0.300610486825,space,0.383830664709,space,0.317187892244,space,0.433943399112,space,0.268546310312,j,1,1.10045441127,SPR,31,A,,female,59.9906700808,001,2016_11_23_1610,
有人明年要在高雄舉辦演唱會,高雄明年有演唱會？,舉辦,高雄,演唱會,有人,要在,f,明年,13,3,17,0,18,18,16,space,0.233947188535,space,0.233661010483,space,0.217163734866,space,0.250289730611,space,0.350527435978,space,0.667287442746,space,0.583802402136,f,1,2.0837526664,SPR,31,A,,female,59.9906700808,001,2016_11_23_1610,
砍傷表弟的疑犯發現了秘密,疑犯發現了秘密？,發現了,疑犯,秘密,砍傷,的,f,表弟,12,1,21,0,19,19,4,space,0.233828375262,space,0.200435543258,space,0.200446990348,space,0.250425517152,space,0.283853479981,space,0.417192313238,space,0.383793560264,f,1,0.717073342093,SPR,31,A,,female,59.9906700808,001,2016_11_23_1610,
航海家資助的演員擔任了主角,演員當上了主角？,擔任了,演員,主角,航海家,的,f,資助,13,2,51,0,20,20,10,space,0.217162550689,space,0.233921136416,space,0.317341836315,space,0.283495856158,space,0.350677432754,space,0.567260127544,space,0.400567145669,f,1,0.850577171746,SPR,31,A,,female,59.9906700808,001,2016_11_23_1610,
同情雇主的技工拿到了專利,雇主毆打了技工？,拿到了,技工,專利,同情,的,j,雇主,12,1,18,0,21,21,1,space,0.183753534802,space,0.217074131564,space,0.217175576749,space,0.30052996226,space,0.350464674179,space,0.467191760603,space,1.18399629273,j,1,2.3004762792,SPR,31,A,,female,59.9906700808,001,2016_11_23_1610,
取笑小郭的廚師偷聽了對話,小郭表揚了廚師？,偷聽了,廚師,對話,取笑,的,j,小郭,12,1,22,0,22,22,5,space,0.217231628165,space,0.233839822409,space,0.217134524981,space,0.317166182213,space,0.250502489158,space,0.467286100669,space,0.450156865059,j,1,1.73412363208,SPR,31,A,,female,59.9906700808,001,2016_11_23_1610,
雨後有時會見到漂亮的彩虹,雨後可能看到彩虹？,的,漂亮,彩虹,雨後,會見到,f,有時,12,3,21,0,23,23,20,space,0.233785349905,space,0.233883637236,space,0.283844006539,space,0.316902503662,space,0.333749113837,space,0.284100579942,space,0.267318705242,f,1,0.70076277302,SPR,31,A,,female,59.9906700808,001,2016_11_23_1610,
治療師責備的婦女察覺了動靜,治療師察覺了動靜？,察覺了,婦女,動靜,治療師,的,j,責備,13,2,62,0,0,0,13,space,1.68452957066,space,0.30045772696,space,0.383868953359,space,0.4172992846,space,0.533857427276,space,0.933868795459,space,0.483794823376,j,1,1.05053746208,SPR,31,A,,female,59.9906700808,001,2016_11_23_1610,
批評小吳的評論家說了粗話,評論家說了粗話？,說了,評論家,粗話,批評,的,f,小吳,12,1,29,0,1,1,4,space,0.233733245754,space,0.216821900161,space,0.250551830191,space,0.283807691536,space,0.267185681791,space,0.533908741985,space,0.683813928219,f,1,2.48392389956,SPR,31,A,,female,59.9906700808,001,2016_11_23_1610,
大姑姑捧紅的明星拍攝了新片,大姑姑拍攝了新片？,拍攝了,明星,新片,大姑姑,的,j,捧紅,13,2,60,0,2,2,11,space,0.233779428963,space,0.233814954525,space,0.250463805773,space,0.267211733852,space,0.250611828902,space,0.283981766726,space,0.267109893932,j,1,1.10048520006,SPR,31,A,,female,59.9906700808,001,2016_11_23_1610,
參加國際會議是令人高興的事,參加會議讓人不開心？,的,令人高興,事,參加,是,j,國際會議,13,3,28,0,3,3,19,space,0.217138077569,space,0.217196102603,space,0.250751562708,space,0.250683669437,space,0.267055026692,space,0.367148261546,space,0.41719744468,j,1,0.967294784699,SPR,31,A,,female,59.9906700808,001,2016_11_23_1610,
今天爸爸買了一籃新鮮的水果,爸爸今天買了水果？,的,新鮮,各種水果,今天,買了,f,爸爸,13,3,27,0,4,4,18,space,0.217241101636,space,0.183903926285,space,0.183901952638,space,0.200517252,space,0.233528776502,space,0.267210549675,space,0.483581275359,f,1,0.583788191929,SPR,31,A,,female,59.9906700808,001,2016_11_23_1610,
協助叔叔的警察破了大案件,警察偵破了大案件？,破了,警察,大案件,協助,的,f,叔叔,12,1,31,0,5,5,6,space,0.200523172942,space,0.167181655532,space,0.216981370409,space,0.250572356046,space,0.250714458263,space,0.233883242501,space,0.250453542831,f,1,0.850448885059,SPR,31,A,,female,59.9906700808,001,2016_11_23_1610,
家長們準備了豐盛的晚餐,家長沒有準備食物？,的,豐盛,晚餐,家長們,了,j,準備,11,3,32,0,6,6,23,space,0.200582776888,space,0.150513067871,space,0.250468542537,space,0.300429701252,space,0.250604329078,space,0.267234233354,space,0.267188444879,f,0,0.667426781845,SPR,31,A,,female,59.9906700808,001,2016_11_23_1610,
檢舉犯人的同伴知道了敵情,犯人知道了敵情？,知道了,同伴,敵情,檢舉,的,j,犯人,12,1,26,0,7,7,1,space,0.500527751778,space,0.250569198251,space,0.333931478322,space,0.467163340159,space,0.467123077862,space,0.700505410146,space,0.717340178468,j,1,1.46688071467,SPR,31,A,,female,59.9906700808,001,2016_11_23_1610,
他一邊寫作業一邊看著電視,他不能同時做兩件事？,看著,一邊,電視,他,寫作業,j,一邊,12,3,26,0,8,8,17,space,0.233867058647,space,0.200500278675,space,0.200553172268,space,0.233906531503,space,0.334075948893,space,0.26756264735,space,0.317143682681,j,1,1.8336942466,SPR,31,A,,female,59.9906700808,001,2016_11_23_1610,
信任市民的委員爭到了選票,委員放棄了選票？,爭到了,委員,選票,信任,的,j,市民,12,1,28,0,9,9,3,space,0.183908268285,space,0.217263206403,space,0.217181102926,space,0.233818112349,space,0.250599592313,space,0.633758034703,space,2.08398871392,j,1,1.06743183435,SPR,31,A,,female,59.9906700808,001,2016_11_23_1610,
空服員侮辱的旅客拿出了凶器,空服員把凶器藏了起來？,拿出了,旅客,凶器,空服員,的,j,侮辱,13,2,58,0,10,10,9,space,0.217195313133,space,0.183892084431,space,0.250527357042,space,0.250457490154,space,0.217112420214,space,0.283982556168,space,0.500508015364,j,1,1.25053485687,SPR,31,A,,female,59.9906700808,001,2016_11_23_1610,
聖誕節是個令人快樂的節日,聖誕節讓人快樂？,的,快樂,節日,聖誕節,令人,f,是個,12,3,25,0,11,11,16,space,0.217330310232,space,0.250484726363,space,0.217285311199,space,0.234002450452,space,0.200634486304,space,0.233914820798,space,0.250507620629,f,1,0.500442885183,SPR,31,A,,female,59.9906700808,001,2016_11_23_1610,
親近孩子的阿姨迷失了方向,阿姨迷路了？,迷失了,阿姨,方向,親近,的,f,孩子,12,1,27,0,12,12,2,space,0.183873532194,space,0.217100973066,space,0.183878663665,space,0.26707949987,space,0.250530120131,space,0.317111709679,space,0.334109895513,f,1,0.833853322139,SPR,31,A,,female,59.9906700808,001,2016_11_23_1610,
孩子們快樂地享受著陽光,孩子們喜歡陽光？,著,享受,陽光,孩子們,的,f,快樂,11,3,31,0,13,13,22,space,0.250334729615,space,0.21736267797,space,0.233638116217,space,0.217222154664,space,0.233845348586,space,0.283620195551,space,0.300373649836,f,1,0.750515120453,SPR,31,A,,female,59.9906700808,001,2016_11_23_1610,
鄉村的風景迷人且空氣新鮮,鄉村的風景很好？,空氣,且,新鮮,鄉村的,迷人,f,風景,12,3,29,0,14,14,20,space,0.183841559192,space,0.200416991021,space,0.183889716049,space,0.484094027459,space,0.567216707423,space,0.600784798851,space,0.350768220262,f,1,0.733811796672,SPR,31,A,,female,59.9906700808,001,2016_11_23_1610,
小明責罵的管理員掄起了拳頭,管理員握起了拳頭？,掄起了,管理員,拳頭,小明,的,f,責罵,13,2,59,0,15,15,10,space,0.333788586664,space,0.250833271508,space,0.200674748601,space,0.283838875068,space,0.617187339667,space,0.517158445524,space,0.333940557059,f,1,0.583918847027,SPR,31,A,,female,59.9906700808,001,2016_11_23_1610,
業務員撞見的藝人衝進了現場,藝人闖進了現場？,衝進了,藝人,現場,業務員,的,f,撞見,13,2,63,0,16,16,14,space,0.183754324244,space,0.217199655162,space,0.250299204054,space,0.333824506961,space,0.35048362115,space,0.500483936921,space,0.700476200262,f,1,0.717344520468,SPR,31,A,,female,59.9906700808,001,2016_11_23_1610,
弟弟花光了所有的零花錢,弟弟存了些零花錢？,的,所有,零花錢,弟弟,光了,j,花,11,3,30,0,17,17,21,space,0.283851901098,space,0.217144787952,space,0.217061894975,space,0.284024792112,space,0.283856637834,space,0.433868400723,space,0.31721078651,j,1,1.13390526836,SPR,31,A,,female,59.9906700808,001,2016_11_23_1610,
碰見駕駛員的盜賊撕了名畫,駕駛員毀壞了名畫？,撕了,盜賊,名畫,碰見,的,j,駕駛員,12,1,32,0,18,18,7,space,0.217196497339,space,0.250521830836,space,0.250489463127,space,0.533940714959,space,0.533830585773,space,1.25052696234,space,0.500557356398,j,1,0.833925162646,SPR,31,A,,female,59.9906700808,001,2016_11_23_1610,
惹怒上尉的服務員扔了盤子,盤子是上尉扔的？,扔了,服務員,盤子,惹怒,的,j,上尉,12,1,30,0,19,19,5,space,0.216913082404,space,0.183958398789,space,0.233754955814,space,0.300502331258,space,0.28381953339,space,0.550684301037,space,0.533874005865,j,1,0.80061877612,SPR,31,A,,female,59.9906700808,001,2016_11_23_1610,
小林支持的研究員分析了案例,小林不懂分析案例？,分析了,研究員,案例,小林,的,j,支持,13,2,64,0,20,20,15,space,0.21724860149,space,0.217209918104,space,0.183879453107,space,0.283825849037,space,0.267323836684,space,0.500536830514,space,0.783825059567,f,0,1.78383176995,SPR,31,A,,female,59.9906700808,001,2016_11_23_1610,
主播討好的發言人處理了糾紛,發言人擺平了糾紛？,處理了,發言人,糾紛,主播,的,f,討好,13,2,57,0,21,21,8,space,0.467088341771,space,0.200442648347,space,0.767135945993,space,0.400475963397,space,0.367284048087,space,0.417311126454,space,0.783992424374,f,1,1.16713507762,SPR,31,A,,female,59.9906700808,001,2016_11_23_1610,
熟悉顧客的職工推薦了商品,職工推薦了商品？,推薦了,職工,商品,熟悉,的,f,顧客,12,1,25,0,22,22,0,space,0.183837217191,space,0.217253338225,space,0.267435150075,space,0.317110525502,space,0.300445490371,space,1.31732328408,space,0.700504620676,f,1,0.917144156352,SPR,31,A,,female,59.9906700808,001,2016_11_23_1610,
代理商詆毀的律師吃上了官司,律師碰上了官司？,吃上了,律師,官司,代理商,的,f,詆毀,13,2,61,0,23,23,12,space,0.200483700086,space,0.200494752469,space,0.500628012756,space,0.58385332211,space,0.350540462008,space,0.800511015288,space,0.61709497319,f,1,1.95062777592,SPR,31,A,,female,59.9906700808,001,2016_11_23_1610,
兇嫌唆使的槍手瞄準了目標,槍手無法找到目標？,瞄準了,槍手,目標,兇嫌,的,j,唆使,12,2,42,0,0,0,9,None,,space,1.05035865016,space,0.517165945348,space,0.684134447627,space,1.06709078909,space,0.900550172344,space,0.550585618941,j,1,0.783702693792,SPR,31,A,,female,59.9906700808,001,2016_11_23_1610,
嫉妒哥哥的富商觸犯了法律,哥哥違反了法律？,觸犯了,富商,法律,嫉妒,的,j,哥哥,12,1,14,0,1,1,5,space,0.233863111353,space,0.350447306148,space,0.283866111306,space,0.317344599403,space,0.267167129554,space,1.15054859343,space,0.567446439323,j,1,0.883741061378,SPR,31,A,,female,59.9906700808,001,2016_11_23_1610,
老闆害怕的藥劑師調配了新藥,藥劑師調配了新藥？,調配了,藥劑師,新藥,老闆,的,f,害怕,13,2,43,0,2,2,10,space,0.23387811103,space,0.216898477462,space,0.200607250037,space,0.300518515141,space,0.267102788843,space,0.417102315172,space,0.500638275698,f,1,0.917217181093,SPR,31,A,,female,59.9906700808,001,2016_11_23_1610,
在地人尊敬的導遊受到了表揚,在地人不喜歡導遊？,受到了,導遊,表揚,在地人,的,j,尊敬,13,2,44,0,3,3,11,space,0.200523567677,space,0.233728114283,space,0.283845585451,space,0.317296837282,space,0.267068842222,space,0.383924215304,space,0.350658485782,j,1,0.950562645769,SPR,31,A,,female,59.9906700808,001,2016_11_23_1610,
室友鼓足勇氣參加了圍棋比賽,室友參加了比賽？,圍棋,參加了,比賽,室友,勇氣,f,鼓足,13,3,11,0,4,4,18,space,0.217177550396,space,0.183577880671,space,0.217145182658,space,0.43388695296,space,0.350583882158,space,0.28384045398,space,0.400402938685,f,1,0.833841480257,SPR,31,A,,female,59.9906700808,001,2016_11_23_1610,
維護隊員的教練得罪了評審,教練得罪了評審？,得罪了,教練,評審,維護,的,f,隊員,12,1,15,0,5,5,6,space,0.2339511358,space,0.217178339837,space,0.250694327115,space,0.467127025157,space,0.250670643436,space,0.667120077938,space,0.333769244986,f,1,0.817194997362,SPR,31,A,,female,59.9906700808,001,2016_11_23_1610,
我們週末約了一起去打籃球,我們週末不去打籃球？,打,一起去,籃球,我們,約了,j,週末,12,3,12,0,6,6,19,space,0.583995424298,space,0.467438465799,space,0.233795218111,space,0.383870926977,space,0.283797033859,space,0.383799086412,space,0.267231075559,j,1,0.883628169075,SPR,31,A,,female,59.9906700808,001,2016_11_23_1610,
為了進步就要不斷嚐試新方法,進步需要新方法？,嘗試,不斷,新方法,為了,就要,f,進步,13,3,15,0,7,7,22,space,0.200506594323,space,0.23351338206,space,0.183812744042,space,0.250710510998,space,0.267219628411,space,0.167194681591,space,0.450448963995,f,1,1.05054061991,SPR,31,A,,female,59.9906700808,001,2016_11_23_1610,
小金關心的助教迷上了遊戲,助教喜歡打遊戲？,迷上了,助教,遊戲,小金,的,f,關心,12,2,41,0,8,8,8,space,0.217160971806,space,0.183747219155,space,0.183841559221,space,0.233812586142,space,0.267377125041,space,1.13401816066,space,0.517309231742,f,1,0.900574250787,SPR,31,A,,female,59.9906700808,001,2016_11_23_1610,
拜訪總統的老人遭遇了車禍,老人遭遇了車禍？,遭遇了,老人,車禍,拜訪,的,f,總統,12,1,11,0,9,9,2,space,0.200497120852,space,0.200523567648,space,0.183622484998,space,0.217361493793,space,0.234110211284,space,0.250774851709,space,1.13402210793,f,1,0.833757008397,SPR,31,A,,female,59.9906700808,001,2016_11_23_1610,
認識張三的司機違反了規定,司機不遵守規定？,違反了,司機,規定,認識,的,f,張三,12,1,9,0,10,10,0,space,0.200414227904,space,0.183775639569,space,0.20052514656,space,0.200513304706,space,0.200704747927,space,0.217137682834,space,0.783895715926,f,1,1.25090550678,SPR,31,A,,female,59.9906700808,001,2016_11_23_1610,
新發芽的種子需要很多肥料,種子需要肥料？,很多,需要,肥料,新發芽,種子,f,的,12,3,13,0,11,11,20,space,0.167261390685,space,0.183528539637,space,0.200462384761,space,0.267117393785,space,0.23400955557,space,0.23397560895,space,0.233833112026,f,1,0.70049554194,SPR,31,A,,female,59.9906700808,001,2016_11_23_1610,
科學家佩服的商人買下了產品,商人買下了產品？,買下了,商人,產品,科學家,的,f,佩服,13,2,45,0,12,12,12,space,0.217273074639,space,0.18393747817,space,0.183918925963,space,0.233484172175,space,0.23400521357,space,0.517266206356,space,0.450523962383,f,1,0.667199418327,SPR,31,A,,female,59.9906700808,001,2016_11_23_1610,
欣賞小王的村長參加了競選,小王不想去競選？,參加了,村長,競選,欣賞,的,j,小王,12,1,12,0,13,13,3,space,0.233898636914,space,0.150449911336,space,0.183846295928,space,0.267227917735,space,0.250517488836,space,0.233775086963,space,0.233877716324,f,0,2.20053225168,SPR,31,A,,female,59.9906700808,001,2016_11_23_1610,
廣播員攔住的大叔拿錯了行李,廣播員拿錯了行李？,拿錯了,大叔,行李,廣播員,的,j,攔住,13,2,46,0,14,14,13,space,0.550423385605,space,0.583778323751,space,0.383818428119,space,0.367432860658,space,0.617358257005,space,0.66718955012,space,0.533769402857,j,1,1.41737467769,SPR,31,A,,female,59.9906700808,001,2016_11_23_1610,
這個問題同學們一起討論過,同學們沒討論問題？,一起,們,討論過,這個,同學,j,問題,12,3,16,0,15,15,23,space,0.217099788919,space,0.200514488912,space,0.200520804559,space,0.217376493441,space,0.23382324382,space,0.250569987722,space,0.267158445524,j,1,1.06709118382,SPR,31,A,,female,59.9906700808,001,2016_11_23_1610,
女婿讚賞的工程師籌辦了晚宴,工程師舉辦了一場晚宴？,籌辦了,工程師,晚宴,女婿,的,f,讚賞,13,2,47,0,16,16,14,space,0.167224680947,space,0.200488436822,space,0.200521988736,space,0.233849295881,space,0.267177392496,space,0.350496647181,space,0.483508645353,f,1,0.833757403132,SPR,31,A,,female,59.9906700808,001,2016_11_23_1610,
厭煩醫生的病人嘀咕了幾句,病人喜歡醫生？,嘀咕了,病人,幾句,厭煩,的,j,醫生,12,1,10,0,17,17,1,space,0.200521594001,space,0.183761824097,space,0.250767746591,space,0.200663301453,space,0.200492778851,space,0.200528699119,space,0.200422122492,j,1,1.03379150765,SPR,31,A,,female,59.9906700808,001,2016_11_23_1610,
邀請王總的政客出席了宴會,政客參加了宴會？,出席了,政客,宴會,邀請,的,f,王總,12,1,13,0,18,18,4,space,0.200137128617,space,0.200136733882,space,0.200653828011,space,0.217213470663,space,0.233767587109,space,0.283995187492,space,0.300784562016,f,1,0.850205337658,SPR,31,A,,female,59.9906700808,001,2016_11_23_1610,
鄰居的奶奶一個字也不認識,鄰居的奶奶識字？,也,一個字,不認識,鄰居,奶奶,j,的,12,3,10,0,19,19,17,space,0.217114393832,space,0.183775244863,space,0.250526172866,space,0.217131367157,space,0.283865321864,space,0.467137682834,space,0.300498778728,j,1,1.18407602783,SPR,31,A,,female,59.9906700808,001,2016_11_23_1610,
舞者羨慕的造型師登上了雜誌,在雜誌上能看到舞者？,登上了,造型師,雜誌,舞者,的,j,羨慕,13,2,48,0,20,20,15,space,0.200479358085,space,0.200531067501,space,0.200433174876,space,0.183838006662,space,0.233542986709,space,0.617209839169,space,0.517237391206,j,1,1.76719239217,SPR,31,A,,female,59.9906700808,001,2016_11_23_1610,
欺瞞群眾的主席失去了權力,群眾得到了權力？,失去了,主席,權力,欺瞞,的,j,群眾,12,1,16,0,21,21,7,space,0.167282705981,space,0.167229812418,space,0.183826559543,space,0.200615539361,space,0.417256259214,space,0.367081947188,space,0.283910715603,j,1,1.85056927719,SPR,31,A,,female,59.9906700808,001,2016_11_23_1610,
李老師今天看上去很不舒服,李老師今天不舒服？,很,上去,不舒服,李老師,看,f,今天,12,3,9,0,22,22,16,space,0.183818270219,space,0.200484489527,space,0.217172813631,space,0.283928083663,space,0.300677195919,space,0.283856637834,space,0.267180155584,f,1,0.934048791562,SPR,31,A,,female,59.9906700808,001,2016_11_23_1610,
經常跑步能夠提高身體素質,跑步不利於健康？,身體,提高,素質,經常,能夠,j,跑步,12,3,14,0,23,23,21,space,0.200529093854,space,0.21726083805,space,0.217186234397,space,0.183762218803,space,0.200586724182,space,0.217192155309,space,0.283834533038,j,1,1.20047422659,SPR,31,A,,female,59.9906700808,001,2016_11_23_1610,
老師這次沒有劃考試的重點,老師劃了考試重點？,的,劃考試,重點,老師,沒有,j,這次,12,3,4,0,0,0,19,space,0.817459070618,space,0.284094264265,space,0.167211260181,space,0.233076812554,space,0.634143684263,space,0.484036397131,space,0.233703641134,j,1,1.06744288676,SPR,31,A,,female,59.9906700808,001,2016_11_23_1610,
究竟存不存在外星人仍是個謎,還沒法確定外星人的存在？,是個,仍,謎,究竟,外星人,f,存不存在,13,3,3,0,1,1,18,space,0.167187181767,space,0.183905110462,space,0.167143761617,space,0.200152917765,space,0.217159787629,space,0.30076245722,space,0.166879293654,f,1,1.53386690078,SPR,31,A,,female,59.9906700808,001,2016_11_23_1610,
嬸嬸救治的鄰居染上了毒癮,嬸嬸染上了毒癮？,染上了,鄰居,毒癮,嬸嬸,的,j,救治,12,2,38,0,2,2,13,space,0.200465147849,space,0.150601487025,space,0.167136261822,space,0.233946004329,space,0.283877953159,space,0.750558145839,space,1.63385829568,j,1,1.51712686726,SPR,31,A,,female,59.9906700808,001,2016_11_23_1610,
刺客襲擊的鐵匠鑄造了寶劍,鐵匠救了刺客？,鑄造了,鐵匠,寶劍,刺客,的,f,襲擊,12,2,39,0,3,3,14,space,0.217144393187,space,0.150489778927,space,0.183794586541,space,0.200577645446,space,0.267293837329,space,0.983828375262,space,0.483766008198,f,1,3.7174341238,SPR,31,A,,female,59.9906700808,001,2016_11_23_1610,
崇拜小張的作家寫了首詩,作家會寫詩歌？,寫了,作家,詩歌,崇拜,的,f,小張,11,1,1,0,4,4,0,space,0.300616013032,space,0.200520409824,space,0.267357783334,space,0.283549933927,space,0.250729063235,space,0.567286179605,space,0.600440201029,f,1,2.30048733158,SPR,31,A,,female,59.9906700808,001,2016_11_23_1610,
羞辱小周的導演做了壞事,導演做了不好的事？,做了,導演,壞事,羞辱,的,f,小周,11,1,5,0,5,5,4,space,0.250518278277,space,0.217074921005,space,0.233917978621,space,0.31746064956,space,0.250691169291,space,0.300746273366,space,0.217176760925,f,1,1.00041367527,SPR,31,A,,female,59.9906700808,001,2016_11_23_1610,
戰士掩護的村民躲進了樹洞,村民跑出了樹洞？,躲進了,村民,樹洞,戰士,的,j,掩護,12,2,40,0,6,6,15,space,0.500503278599,space,0.233921925887,space,0.200447779789,space,0.450583171623,space,0.450666854013,space,0.800646407122,space,0.633551197068,j,1,1.51720502347,SPR,31,A,,female,59.9906700808,001,2016_11_23_1610,
賞識徐總的詩人獲得了好評,徐總獲得了好評？,獲得了,詩人,好評,賞識,的,j,徐總,12,1,8,0,7,7,7,space,0.217183471308,space,0.233888768707,space,0.200378702371,space,0.300498383964,space,0.283703088498,space,0.300302993477,space,0.267094894254,j,1,0.850537304184,SPR,31,A,,female,59.9906700808,001,2016_11_23_1610,
厭惡房東的小孩吃了蘋果,房東扔掉蘋果？,吃了,小孩,蘋果,厭惡,的,j,房東,11,1,2,0,8,8,1,space,0.550453779666,space,0.333895952761,space,0.200425280316,space,0.650773193833,space,1.06739157208,space,0.383917899686,space,0.350463884737,j,1,1.21721583902,SPR,31,A,,female,59.9906700808,001,2016_11_23_1610,
主人誣陷的管家怒斥了園丁,主人誇獎了園丁？,怒斥了,管家,園丁,主人,的,j,誣陷,12,2,34,0,9,9,9,None,,space,0.984015081776,space,0.700521988736,space,0.433798928541,space,0.600752431143,space,0.533852295834,space,0.667241654271,j,1,0.950530278031,SPR,31,A,,female,59.9906700808,001,2016_11_23_1610,
局長愛慕的學生考上了大學,學生考上了大學？,考上了,學生,大學,局長,的,f,愛慕,12,2,33,0,10,10,8,space,0.267224365147,space,0.517195155262,space,0.500501304952,space,0.533861769305,space,0.633910399833,space,0.750417227857,space,0.317174866213,f,1,0.916922713775,SPR,31,A,,female,59.9906700808,001,2016_11_23_1610,
欽佩領隊的組長煮了美食,組長討厭領隊？,煮了,組長,美食,欽佩,的,j,領隊,11,1,6,0,11,11,5,space,0.250453542831,space,0.217204391898,space,0.283873216424,space,0.433858137781,space,0.533776113269,space,0.500541172514,space,0.76740080872,j,1,1.25050327863,SPR,31,A,,female,59.9906700808,001,2016_11_23_1610,
茶餐廳裡有很多好吃的甜點,茶餐廳裡有甜點？,的,好吃,甜點,茶餐廳裡,很多,f,有,12,3,5,0,12,12,20,space,0.200510146882,space,0.267403177102,space,0.450472252967,space,0.35016586486,space,0.400599513378,space,0.283924531104,space,0.667079420935,f,1,0.850549935509,SPR,31,A,,female,59.9906700808,001,2016_11_23_1610,
司機們大部分都比較好說話,司機們討厭說話？,好,比較,說話,司機們,都,j,大部分,12,3,2,0,13,13,17,space,0.200539356796,space,0.183985635056,space,0.217148735217,space,0.183842743398,space,0.317176050419,space,0.350419280439,space,0.333855295728,j,1,1.00051985722,SPR,31,A,,female,59.9906700808,001,2016_11_23_1610,
警察逮捕了正在逃跑的罪犯,罪犯正在逃跑？,的,逃跑,罪犯,警察,正在,f,逮捕了,12,3,1,0,14,14,16,space,0.217266364227,space,0.184003792558,space,0.200595013448,space,0.200541330443,space,0.217220575752,space,0.250524199218,space,0.28415465774,f,1,1.00017249628,SPR,31,A,,female,59.9906700808,001,2016_11_23_1610,
傳統小說有很多精華的部分,小說裡沒有精華？,的,精華,部分,傳統小說,很多 ,j,有 ,12,3,6,0,15,15,21,space,0.183739324566,space,0.166818110767,space,0.384071448963,space,0.183566038846,space,0.200328966574,space,0.26718489232,space,0.267401992896,j,1,1.26729423206,SPR,31,A,,female,59.9906700808,001,2016_11_23_1610,
船長招待的賓客接受了訪問,賓客接受了訪問？,接受了,賓客,訪問,船長,的,f,招待,12,2,37,0,16,16,12,space,0.166249307251,space,0.184471545625,space,0.200487252645,space,0.200504225941,space,0.183927215257,space,0.200648301805,space,0.41748559635,f,1,0.766856083617,SPR,31,A,,female,59.9906700808,001,2016_11_23_1610,
傷害弟弟的同學打了老師,同學推開了老師？,打了,同學,老師,傷害,的,j,弟弟,11,1,4,0,17,17,3,space,0.200489620998,space,0.167312705365,space,0.200454490201,space,0.200481331703,space,0.200718958164,space,0.234107448196,space,0.200721721281,f,0,1.25038801794,SPR,31,A,,female,59.9906700808,001,2016_11_23_1610,
舉薦小潘的水手開啟了旅程,水手開啟了旅程？,開啟了,水手,旅程,舉薦,的,f,小潘,12,1,7,0,18,18,6,space,0.283787560387,space,0.21742188721,space,0.217282153375,space,0.417142182705,space,0.417235338595,space,0.450542119856,space,0.483887189795,f,1,0.900555698521,SPR,31,A,,female,59.9906700808,001,2016_11_23_1610,
叔叔有很多棟房子和別墅,叔叔沒有很多房子？,和,房子,別墅,叔叔,很多棟,j,有,11,3,8,0,19,19,23,space,0.217117551685,space,0.200763167726,space,0.217399387679,space,0.23385363791,space,0.367103262513,space,0.383769876556,space,0.217271100992,j,1,1.0504948314,SPR,31,A,,female,59.9906700808,001,2016_11_23_1610,
公園裡擠滿了玩鬧的小孩,公園裡有小孩？,的,玩鬧,小孩,公園裡,滿了,f,擠,11,3,7,0,20,20,22,space,0.200418569933,space,0.183946162229,space,0.200557514298,space,0.183861690341,space,0.200494357763,space,0.350604408013,space,0.267411861103,f,1,0.650602671201,SPR,31,A,,female,59.9906700808,001,2016_11_23_1610,
搶匪指使的殺手發生了不測,殺手遭遇不測了？,發生了,殺手,不測,搶匪,的,f,指使,12,2,35,0,21,21,10,space,0.200508962705,space,0.183916952315,space,0.217172024189,space,0.25049617351,space,0.267046342691,space,0.450544488238,space,0.4338024811,f,1,0.883887900331,SPR,31,A,,female,59.9906700808,001,2016_11_23_1610,
表揚工人的廠長漲了薪水,廠長上調了薪水？,漲了,廠長,薪水,表揚,的,f,工人,11,1,3,0,22,22,2,space,0.183784718334,space,0.200688958808,space,0.184002213646,space,0.200407122815,space,0.200446990348,space,0.167196260503,space,0.200485673733,f,1,1.41712955141,SPR,31,A,,female,59.9906700808,001,2016_11_23_1610,
小陳賄賂的企劃員擅長宣傳,小陳不懂宣傳？,擅長,企劃員,宣傳,小陳,的,j,賄賂,12,2,36,0,23,23,11,space,0.200421333022,space,0.150573856052,space,0.183964714437,space,0.217127025157,space,0.233752982196,space,0.317542753037,space,0.23382758582,j,1,1.75055419857,SPR,31,A,,female,59.9906700808,001,2016_11_23_1610,
