Type,ID,practicetrials.thisRepN,practicetrials.thisTrialN,practicetrials.thisN,practicetrials.thisIndex,key_resp_12.keys,key_resp_12.rt,Atests1.keys,Atests1.rt,Atests2.keys,Atests2.rt,Atests3.keys,Atests3.rt,Atests4.keys,Atests4.rt,Atests5.keys,Atests5.rt,Atests6.keys,Atests6.rt,key_resp_8.keys,key_resp_8.corr,key_resp_8.rt,expName,participant,version,Gender,frameRate
3,55,0,0,0,10,space,0.467446627,space,0.817124014,space,0.683839127,space,0.517147856,space,0.533492041,space,0.450502057,space,0.400420308,f,1,1.017070094,SPR,7,A,M,59.96998397
2,32,0,1,1,2,space,0.833889771,space,0.500499728,space,0.733423911,space,0.483737524,space,0.617111619,space,0.667104948,space,0.61717675,j,1,1.73381272,SPR,7,A,M,59.96998397
3,40,0,2,2,7,space,0.650164721,space,0.53384414,space,0.517176671,space,0.550585029,space,0.633759352,space,0.517075225,space,0.517253643,j,1,1.916745152,SPR,7,A,M,59.96998397
1,62,0,3,3,4,space,0.550106617,space,0.600445729,space,0.583751418,space,0.567181447,space,1.000450387,space,0.683801628,space,0.850663817,j,1,2.617134514,SPR,7,A,M,59.96998397
1,63,0,4,4,5,space,0.467130448,space,0.533932165,space,0.567035792,space,0.617160566,space,0.533974796,space,0.667235209,space,0.833457542,f,1,2.783907494,SPR,7,A,M,59.96998397
3,60,0,5,5,11,space,0.550530951,space,0.533876113,space,0.500464202,space,0.51714154,space,0.483797523,space,0.483917126,space,0.567138421,j,1,1.649979592,SPR,7,A,M,59.96998397
1,57,0,6,6,3,space,0.450464558,space,0.533874534,space,0.533767957,space,0.550497399,space,0.634076715,space,0.533857561,space,1.168260718,f,1,5.367455232,SPR,7,A,M,59.96998397
3,16,0,7,7,8,space,0.517312063,space,0.517076015,space,0.48380818,space,0.567069344,space,0.433887481,space,0.583805891,space,0.667107712,j,1,1.600092051,SPR,7,A,M,59.96998397
3,39,0,8,8,6,space,0.550161089,space,0.501367344,space,0.550098722,space,0.517050357,space,0.567075265,space,0.617074515,space,0.567073686,f,1,1.317277169,SPR,7,A,M,59.96998397
3,20,0,9,9,9,space,0.517173118,space,0.617086751,space,0.517122593,space,0.483846864,space,0.500585384,space,0.467211762,space,0.600474544,j,1,1.100488755,SPR,7,A,M,59.96998397
2,30,0,10,10,1,space,0.500516701,space,0.467147816,space,0.467211368,space,0.500466571,space,0.684032939,space,0.533473489,space,0.617118724,j,1,2.550483978,SPR,7,A,M,59.96998397
2,26,0,11,11,0,space,0.550509241,space,0.516661943,space,0.533879666,space,0.500462623,space,0.500500912,space,0.800177076,space,0.700501465,j,1,3.533935323,SPR,7,A,M,59.96998397
2,18,0,0,0,0,space,0.66743889,space,0.550290166,space,0.483756471,space,0.450471268,space,0.550834498,space,0.617159776,space,0.533716248,j,1,4.517454561,SPR,7,A,M,59.96998397
3,24,0,1,1,8,space,0.499803819,space,0.45076771,space,0.400743197,space,0.384031913,space,0.400516228,space,0.417006858,space,0.583759313,j,1,1.333806878,SPR,7,A,M,59.96998397
1,53,0,2,2,5,space,0.433948665,space,0.367301682,space,0.433831035,space,0.43380893,space,0.467137553,space,0.400449124,space,0.61721267,f,1,2.750382691,SPR,7,A,M,59.96998397
3,48,0,3,3,7,space,0.600414545,space,0.433896955,space,0.400369783,space,0.433827483,space,0.450130221,space,0.48387489,space,0.40043294,j,1,1.334168845,SPR,7,A,M,59.96998397
2,23,0,4,4,2,space,0.350502767,space,0.433871298,space,0.633838693,space,0.533887166,space,0.550344244,space,0.467074396,space,0.633881324,j,0,1.767265288,SPR,7,A,M,59.96998397
1,52,0,5,5,4,space,0.700561069,space,0.533766378,space,0.567586835,space,0.617166487,space,0.550535688,space,0.550541609,space,0.567132895,j,1,2.783886574,SPR,7,A,M,59.96998397
1,51,0,6,6,3,space,0.46719321,space,0.617151092,space,0.533691774,space,0.617238328,space,0.717170513,space,0.666829427,space,0.550476084,f,1,1.983879232,SPR,7,A,M,59.96998397
3,43,0,7,7,6,space,0.567221709,space,0.584012729,space,0.517278511,space,0.617177934,space,0.483839759,space,0.467550441,space,0.433826693,f,1,1.150549977,SPR,7,A,M,59.96998397
2,19,0,8,8,1,space,0.567158158,space,0.517200749,space,0.617155829,space,0.650313139,space,0.500588148,space,0.517226802,space,0.767069107,j,0,2.567236315,SPR,7,A,M,59.96998397
3,30,0,9,9,11,space,0.700421729,space,0.634729203,space,0.634002111,space,0.583861942,space,0.583715892,space,0.383814417,space,0.683978467,f,0,1.600823486,SPR,7,A,M,59.96998397
3,29,0,10,10,10,space,0.517287985,space,0.617070567,space,0.633941323,space,0.633881718,space,0.60039994,space,0.80011984,space,0.633373701,f,1,1.617259643,SPR,7,A,M,59.96998397
3,28,0,11,11,9,space,0.583884442,space,0.533765984,space,0.667131395,space,0.600413361,space,0.517180223,space,0.633792904,space,0.567199605,j,1,1.600128761,SPR,7,A,M,59.96998397
1,43,0,0,0,5,space,1.700767513,space,0.700471071,space,0.517219302,space,0.583784181,space,0.516743652,space,0.467164789,space,0.517123777,f,1,1.850490926,SPR,7,A,M,59.96998397
3,1,0,1,1,6,space,0.433857482,space,0.533395727,space,0.567088291,space,0.517198776,space,0.533436779,space,0.467257946,space,0.467134001,f,1,1.183882942,SPR,7,A,M,59.96998397
3,10,0,2,2,11,space,0.550557793,space,0.583884442,space,0.550477268,space,0.550389243,space,0.633984348,space,0.467173474,space,0.784047229,j,1,1.367079449,SPR,7,A,M,59.96998397
3,3,0,3,3,7,space,0.517231538,space,0.46730255,space,0.533776641,space,0.500464992,space,0.517154171,space,0.533934139,space,0.483823969,f,1,1.633904218,SPR,7,A,M,59.96998397
1,37,0,4,4,3,space,0.533822825,space,0.617106488,space,0.550640291,space,0.60047336,space,0.583490107,space,0.683782681,space,0.616691627,f,1,2.233937849,SPR,7,A,M,59.96998397
1,42,0,5,5,4,space,0.550459505,space,0.5671625,space,0.517355878,space,0.517267459,space,0.550470952,space,0.500674593,space,0.633722642,j,1,2.667030739,SPR,7,A,M,59.96998397
3,8,0,6,6,9,space,0.533747037,space,0.466880584,space,0.517089436,space,0.500770513,space,0.533847298,space,0.433759589,space,0.483781339,j,1,1.450637844,SPR,7,A,M,59.96998397
2,16,0,7,7,2,space,0.517186539,space,0.584002466,space,0.517172724,space,0.517159303,space,0.516794178,space,0.383883889,space,0.566796191,j,1,2.700523175,SPR,7,A,M,59.96998397
3,4,0,8,8,8,space,0.450485084,space,0.433840903,space,0.450507978,space,0.400370967,space,0.550527793,space,0.450545083,space,0.383744944,j,1,1.283699472,SPR,7,A,M,59.96998397
2,3,0,9,9,1,space,0.350553688,space,0.517179434,space,0.500566437,space,0.516998648,space,0.483809364,space,0.433898534,space,0.600624936,f,1,2.967368075,SPR,7,A,M,59.96998397
3,9,0,10,10,10,space,0.433812878,space,0.467165184,space,0.450389559,space,0.383916257,space,0.450254956,space,0.33384043,space,0.700553174,f,1,1.233707721,SPR,7,A,M,59.96998397
2,2,0,11,11,0,space,0.467085054,space,0.600487176,space,0.533813351,space,0.500585384,space,0.517194434,space,0.500428282,space,0.517073252,j,1,4.917125277,SPR,7,A,M,59.96998397
2,25,0,0,0,2,space,0.584365223,space,0.583831943,space,0.533777036,space,0.483972783,space,0.467180184,space,0.383884679,space,0.601419133,f,1,2.567099343,SPR,7,A,M,59.96998397
3,33,0,1,1,8,space,0.467183737,space,0.46715729,space,0.500425124,space,0.433741037,space,0.500351704,space,0.500488676,space,0.483596605,f,1,1.017239828,SPR,7,A,M,59.96998397
1,54,0,2,2,5,space,0.53379322,space,0.516796941,space,0.366993792,space,0.51714825,space,0.467153342,space,0.417211723,space,0.517118646,j,1,3.517235091,SPR,7,A,M,59.96998397
3,65,0,3,3,11,space,0.433885508,space,0.383759944,space,0.417142645,space,0.383770602,space,0.367289445,space,0.350344481,space,0.400502017,f,1,0.933778141,SPR,7,A,M,59.96998397
1,48,0,4,4,3,space,0.383924941,space,0.450368244,space,0.450437716,space,0.450437321,space,0.550488715,space,0.400480702,space,1.167172447,j,1,1.267115685,SPR,7,A,M,59.96998397
3,35,0,5,5,9,space,0.483849232,space,0.450480742,space,0.417142645,space,0.466930715,space,0.467070844,space,0.417184092,space,0.433803799,f,1,0.883792312,SPR,7,A,M,59.96998397
1,34,0,6,6,1,space,0.467281235,space,0.467371233,space,0.48382239,space,0.467257946,space,0.450222983,space,0.48380818,space,0.550426742,j,1,1.484097123,SPR,7,A,M,59.96998397
2,17,0,7,7,0,space,0.467214131,space,0.46710558,space,0.417278432,space,0.400545832,space,0.483745023,space,0.433819193,space,0.517065752,j,0,1.850575003,SPR,7,A,M,59.96998397
3,14,0,8,8,6,space,0.567034608,space,0.56703895,space,0.767075423,space,0.500571174,space,0.617119514,space,0.51709812,space,0.483987782,j,1,1.283768944,SPR,7,A,M,59.96998397
3,15,0,9,9,7,space,0.500552227,space,0.483768707,space,0.533342044,space,0.517222459,space,0.517175487,space,0.53407782,space,0.617459771,f,1,1.050814762,SPR,7,A,M,59.96998397
3,63,0,10,10,10,space,0.517220091,space,0.467090185,space,0.48381568,space,0.450536398,space,0.450473636,space,0.466860847,space,0.433827483,j,0,3.633751852,SPR,7,A,M,59.96998397
2,33,0,11,11,4,space,0.63381343,space,0.917144619,space,0.633794878,space,0.717348536,space,0.567119869,space,1.050515557,space,0.483805417,f,1,1.433730774,SPR,7,A,M,59.96998397
