Type,ID,practicetrials.thisRepN,practicetrials.thisTrialN,practicetrials.thisN,practicetrials.thisIndex,key_resp_12.keys,key_resp_12.rt,Atests1.keys,Atests1.rt,Atests2.keys,Atests2.rt,Atests3.keys,Atests3.rt,Atests4.keys,Atests4.rt,Atests5.keys,Atests5.rt,Atests6.keys,Atests6.rt,key_resp_8.keys,key_resp_8.corr,key_resp_8.rt,expName,participant,version,Gender,frameRate
1,63,0,0,0,5,space,0.683981625,space,0.500560122,space,0.483826338,space,0.433792746,space,0.833776483,space,0.417091725,space,1.46717821,f,1,1.967182947,SPR,14,A,M,60.01587234
3,55,0,1,1,10,space,0.533789273,space,0.483470291,space,0.600624936,space,0.583845364,space,0.633780273,space,0.450736132,space,0.550549503,f,1,0.750391375,SPR,14,A,M,60.01587234
3,40,0,2,2,7,space,0.467181368,space,0.417081857,space,0.400500833,space,0.550125958,space,0.400441229,space,0.384101386,space,0.417164355,j,1,1.15046511,SPR,14,A,M,60.01587234
1,62,0,3,3,4,space,0.450499689,space,0.417161592,space,0.483766339,space,0.500384467,space,1.233802851,space,0.55061345,space,1.367206552,j,1,2.783963941,SPR,14,A,M,60.01587234
2,30,0,4,4,1,space,0.667229288,space,0.533865456,space,0.517156934,space,1.13393777,space,1.100457571,space,0.483840943,space,0.666958898,j,1,1.683490186,SPR,14,A,M,60.01587234
3,60,0,5,5,11,space,0.566821848,space,0.450546661,space,0.584017071,space,0.717106567,space,0.533701248,space,0.500349731,space,0.583771155,j,1,1.234106399,SPR,14,A,M,60.01587234
3,16,0,6,6,8,space,0.51714904,space,0.483723708,space,0.517067725,space,0.767153579,space,0.784057886,space,0.633440016,space,0.55053253,j,1,1.017036147,SPR,14,A,M,60.01587234
2,26,0,7,7,0,space,0.617276222,space,0.617043726,space,0.983820022,space,0.9504539,space,0.750417427,space,0.500549069,space,1.083804312,j,1,1.866721824,SPR,14,A,M,60.01587234
3,20,0,8,8,9,space,0.550563319,space,0.467105975,space,0.48379318,space,0.50038723,space,0.550470558,space,0.600572832,space,0.583903784,j,1,1.283615394,SPR,14,A,M,60.01587234
3,39,0,9,9,6,space,0.583771155,space,0.517192855,space,0.650180115,space,0.766868979,space,0.617165303,space,0.750505452,space,0.734299422,f,1,0.70041344,SPR,14,A,M,60.01587234
1,57,0,10,10,3,space,0.56720671,space,0.550424769,space,0.600547175,space,0.683954783,space,1.200691725,space,0.583768786,space,0.966804006,f,1,3.200307258,SPR,14,A,M,60.01587234
2,32,0,11,11,2,space,0.500477623,space,0.500522228,space,0.60044415,space,0.583620368,space,1.367163526,space,1.100538885,space,0.700370809,j,1,0.950480742,SPR,14,A,M,60.01587234
3,15,0,0,0,7,space,0.967312418,space,0.550456347,space,0.650627344,space,0.582459862,space,0.651639432,space,0.4838516,space,0.616779651,f,1,0.900474386,SPR,14,A,M,60.01587234
1,48,0,1,1,3,space,0.617187407,space,0.73371759,space,0.767163053,space,0.717132619,space,1.217092357,space,0.550501346,space,0.850605397,j,1,1.800939694,SPR,14,A,M,60.01587234
3,63,0,2,2,10,space,0.533494409,space,0.533837035,space,0.567148684,space,0.567182631,space,0.51711154,space,0.417041989,space,0.383830206,f,1,0.750081117,SPR,14,A,M,60.01587234
1,34,0,3,3,1,space,0.61719767,space,0.550460689,space,0.633745931,space,0.484003177,space,0.817117698,space,0.833950954,space,0.717070646,j,1,1.200430413,SPR,14,A,M,60.01587234
3,14,0,4,4,6,space,0.516759441,space,0.4337513,space,0.583853258,space,0.383849943,space,0.467182947,space,0.483834627,space,0.700473834,j,1,1.900453071,SPR,14,A,M,60.01587234
2,33,0,5,5,4,space,0.61717675,space,0.583774707,space,0.600643883,space,0.617114382,space,1.017125356,space,1.417239354,space,0.550441347,f,1,2.51725088,SPR,14,A,M,60.01587234
1,54,0,6,6,5,space,0.550485163,space,0.500446834,space,0.566744086,space,1.017096935,space,0.950421137,space,0.867156026,space,0.733777983,j,1,1.433781299,SPR,14,A,M,60.01587234
3,35,0,7,7,9,space,1.833746879,space,0.40042544,space,0.533445463,space,0.400479123,space,0.51707562,space,0.767162658,space,0.800629831,f,1,0.700462781,SPR,14,A,M,60.01587234
3,33,0,8,8,8,space,0.717325247,space,0.617173987,space,0.666740218,space,0.567129343,space,0.517109172,space,0.500332363,space,0.533818483,f,1,0.817221907,SPR,14,A,M,60.01587234
2,25,0,9,9,2,space,0.533645591,space,0.500082893,space,0.51716996,space,0.533806641,space,1.200515675,space,0.500528938,space,1.300429703,f,1,1.250429269,SPR,14,A,M,60.01587234
3,65,0,10,10,11,space,0.517136014,space,0.483805812,space,0.583737603,space,0.550339507,space,0.53377901,space,0.600418887,space,0.717170513,f,1,0.817066778,SPR,14,A,M,60.01587234
2,17,0,11,11,0,space,1.017109567,space,0.483838574,space,0.56714079,space,0.500511175,space,0.550480426,space,0.600562569,space,0.767255419,f,1,2.033840588,SPR,14,A,M,60.01587234
3,24,0,0,0,8,space,0.700679883,space,0.484028834,space,0.583242611,space,0.533814141,space,0.483785286,space,0.483844495,space,0.700534227,j,1,0.900441229,SPR,14,A,M,60.01587234
3,28,0,1,1,9,space,0.483887916,space,0.517083515,space,0.533772299,space,0.450440874,space,0.450506794,space,0.417141461,space,0.433815246,j,1,0.834029111,SPR,14,A,M,60.01587234
1,52,0,2,2,4,space,0.400389519,space,0.450546661,space,0.450419558,space,0.466718745,space,0.633586066,space,1.11708083,space,0.933748142,j,1,2.150461952,SPR,14,A,M,60.01587234
3,29,0,3,3,10,space,0.517193249,space,0.567152632,space,0.833841219,space,0.967110711,space,0.583951546,space,0.400455045,space,0.483786075,f,1,0.767185552,SPR,14,A,M,60.01587234
3,48,0,4,4,7,space,0.533982296,space,0.46704716,space,0.466887294,space,0.550600424,space,0.533798351,space,0.533814141,space,0.600538885,j,1,1.367221157,SPR,14,A,M,60.01587234
1,51,0,5,5,3,space,0.666894952,space,0.584021808,space,0.617350826,space,1.033762431,space,1.083785365,space,0.600562569,space,0.833864508,f,1,1.984013834,SPR,14,A,M,60.01587234
2,19,0,6,6,1,space,0.483953441,space,0.45050561,space,0.600443361,space,0.55047411,space,0.733823772,space,1.200608831,space,0.667244288,f,1,2.717297221,SPR,14,A,M,60.01587234
2,18,0,7,7,0,space,0.650497083,space,0.633781852,space,0.684062149,space,0.466902294,space,0.600448492,space,0.583891547,space,0.967213341,j,1,3.200633305,SPR,14,A,M,60.01587234
3,30,0,8,8,11,space,0.584171805,space,0.450442847,space,0.467143474,space,0.450444426,space,0.733756668,space,0.617168855,space,0.633399358,j,1,1.0167176,SPR,14,A,M,60.01587234
3,43,0,9,9,6,space,0.717166566,space,0.550603187,space,0.383914678,space,0.467106764,space,0.550562924,space,0.517188513,space,0.667169289,f,1,0.767140553,SPR,14,A,M,60.01587234
1,53,0,10,10,5,space,0.483869758,space,0.383849153,space,0.600544017,space,0.533752563,space,0.60054678,space,1.333918981,space,1.367258261,f,1,2.150534583,SPR,14,A,M,60.01587234
2,23,0,11,11,2,space,0.6838636,space,0.417125672,space,0.783825785,space,0.650391296,space,0.783822233,space,0.667180342,space,1.250523214,f,1,2.400567543,SPR,14,A,M,60.01587234
3,10,0,0,0,11,space,0.717074594,space,0.583854443,space,0.550505294,space,0.450503241,space,0.58382168,space,0.51719996,space,0.667012582,j,1,0.667210736,SPR,14,A,M,60.01587234
1,43,0,1,1,5,space,0.500695514,space,0.516876676,space,0.633761326,space,0.500524596,space,0.567295919,space,1.083924704,space,0.950422322,f,1,1.184067676,SPR,14,A,M,60.01587234
3,8,0,2,2,9,space,0.583767602,space,0.483794365,space,0.53392427,space,0.483850022,space,0.450126274,space,0.567158553,space,0.433807746,j,1,0.650344323,SPR,14,A,M,60.01587234
2,3,0,3,3,1,space,0.567105264,space,0.533857956,space,0.617116751,space,0.65051603,space,1.11727859,space,0.850483031,space,1.350584477,f,1,1.533982296,SPR,14,A,M,60.01587234
1,37,0,4,4,3,space,0.583895494,space,0.46728084,space,0.533870192,space,1.100477307,space,1.0671625,space,0.567161316,space,0.733837982,f,1,1.283809996,SPR,14,A,M,60.01587234
3,9,0,5,5,10,space,0.50052578,space,0.500478807,space,0.55019701,space,0.450471663,space,0.700535017,space,0.500491439,space,0.667215473,f,1,0.717159461,SPR,14,A,M,60.01587234
2,2,0,6,6,0,space,0.567228025,space,0.56711158,space,0.600546385,space,0.750461242,space,1.317285853,space,0.517197592,space,1.133398174,j,1,1.433559856,SPR,14,A,M,60.01587234
3,3,0,7,7,7,space,0.550577529,space,0.550502531,space,0.583745102,space,0.550409769,space,0.500536438,space,0.417073173,space,0.550551872,f,1,0.967152158,SPR,14,A,M,60.01587234
3,4,0,8,8,8,space,0.667147974,space,0.567086712,space,0.600497833,space,0.633779483,space,0.61705912,space,0.533904139,space,0.600470202,j,1,1.134172634,SPR,14,A,M,60.01587234
1,42,0,9,9,4,space,0.483789233,space,0.500515912,space,0.533846903,space,0.533806246,space,0.517079173,space,0.650528267,space,1.183892416,j,1,2.03394677,SPR,14,A,M,60.01587234
2,16,0,10,10,2,space,0.617185829,space,0.467052291,space,0.550574766,space,0.633770405,space,0.583574184,space,1.283837232,space,0.650499057,j,1,2.317338747,SPR,14,A,M,60.01587234
3,1,0,11,11,6,space,0.48385989,space,0.450347323,space,0.583816154,space,0.533886376,space,0.433808535,space,0.567307366,space,0.566813954,f,1,0.750182957,SPR,14,A,M,60.01587234
