Type,ID,practicetrials.thisRepN,practicetrials.thisTrialN,practicetrials.thisN,practicetrials.thisIndex,key_resp_12.keys,key_resp_12.rt,Atests1.keys,Atests1.rt,Atests2.keys,Atests2.rt,Atests3.keys,Atests3.rt,Atests4.keys,Atests4.rt,Atests5.keys,Atests5.rt,Atests6.keys,Atests6.rt,key_resp_8.keys,key_resp_8.corr,key_resp_8.rt,expName,participant,version,Gender,frameRate
2,52,0,0,0,4,space,1.484277909,space,0.567108027,space,0.433767878,space,0.367147737,space,0.850577766,space,0.383848364,space,0.450561661,j,1,2.333763063,SPR,25,B,F,59.99938422
3,24,0,1,1,8,space,0.483768312,space,0.66710929,space,0.583784181,space,0.633865929,space,0.467137553,space,0.333675827,space,0.3671805,j,1,2.083896284,SPR,25,B,F,59.99938422
1,19,0,2,2,1,space,0.367174579,space,0.450491794,space,0.350477505,space,0.500646173,space,0.417201065,space,0.46718571,space,0.433861824,f,1,2.200506202,SPR,25,B,F,59.99938422
3,48,0,3,3,7,space,0.300719435,space,0.333829377,space,0.300538254,space,0.250655054,space,0.283882626,space,0.267113711,space,0.250520057,j,1,0.750259535,SPR,25,B,F,59.99938422
3,28,0,4,4,9,space,0.300168787,space,0.38381797,space,0.417107119,space,0.31729059,space,0.250771894,space,0.267187921,space,0.250462031,j,1,0.850871445,SPR,25,B,F,59.99938422
3,43,0,5,5,6,space,0.315596409,space,0.366854848,space,0.284175516,space,0.183278216,space,0.200317915,space,0.233468515,space,0.217446824,f,1,1.135031961,SPR,25,B,F,59.99938422
2,51,0,6,6,3,space,0.417289485,space,0.167362707,space,0.233830482,space,0.200443045,space,0.617350826,space,0.28389881,space,3.367235367,j,0,2.000275127,SPR,25,B,F,59.99938422
3,29,0,7,7,10,space,0.30051457,space,0.417169487,space,0.83390556,space,0.233769299,space,0.250329797,space,0.266957793,space,0.267084107,f,1,0.917157645,SPR,25,B,F,59.99938422
3,30,0,8,8,11,space,0.267224631,space,0.300479439,space,0.30061641,space,0.266768717,space,0.2501498,space,0.283830917,space,0.233838377,j,1,1.084025361,SPR,25,B,F,59.99938422
2,53,0,9,9,5,space,0.350480663,space,0.350424611,space,0.233983638,space,0.317398351,space,0.850498031,space,0.383849548,space,0.283714077,f,1,1.100713356,SPR,25,B,F,59.99938422
1,18,0,10,10,0,space,0.333822272,space,0.300501149,space,0.300594305,space,0.683752286,space,0.717169724,space,0.417232644,space,0.317164276,j,1,0.950038644,SPR,25,B,F,59.99938422
1,23,0,11,11,2,space,0.300572595,space,0.283809207,space,0.283652499,space,0.800465623,None,,space,0.700364494,space,0.350455795,j,0,4.733866798,SPR,25,B,F,59.99938422
2,34,0,0,0,1,space,0.300778249,space,0.517153382,space,0.417197118,space,0.450359559,space,0.467178605,space,0.383840864,space,0.400406888,j,1,1.66721271,SPR,25,B,F,59.99938422
1,25,0,1,1,2,space,0.333903586,space,0.383932836,space,0.467182158,space,0.550465426,space,0.417211328,space,0.367227078,space,0.350533162,f,1,1.06680448,SPR,25,B,F,59.99938422
3,15,0,2,2,7,space,0.33388306,space,0.333841219,space,0.350470794,space,0.267234499,space,0.267170553,space,0.233824167,space,0.250440321,f,1,0.833903981,SPR,25,B,F,59.99938422
3,33,0,3,3,8,space,0.367203394,space,0.217159461,space,0.234019163,space,0.23384193,space,0.233801272,space,0.250507425,space,0.200611989,f,1,0.950748368,SPR,25,B,F,59.99938422
3,35,0,4,4,9,space,0.233502857,space,0.200392914,space,0.300423782,space,0.21705012,space,0.183812285,space,0.233860482,space,0.183745576,f,1,0.767424364,SPR,25,B,F,59.99938422
1,33,0,5,5,4,space,0.217163803,space,0.217200118,space,0.333477673,space,1.134042768,space,0.383776523,space,0.433814062,space,0.467225973,f,1,1.200541333,SPR,25,B,F,59.99938422
3,63,0,6,6,10,space,0.25055874,space,0.316836256,space,0.350076064,space,0.317229407,space,0.25052953,space,0.200480544,space,0.250482163,f,1,0.683808733,SPR,25,B,F,59.99938422
1,17,0,7,7,0,space,0.217220644,space,0.216791178,space,0.467217289,space,0.750394533,space,0.317076252,space,0.29994379,space,0.300123787,f,1,1.184166753,SPR,25,B,F,59.99938422
2,48,0,8,8,3,space,0.267226999,space,0.38364192,space,0.383826654,space,0.367152079,space,0.450466137,space,0.333800167,space,0.600446518,j,1,0.967229525,SPR,25,B,F,59.99938422
2,54,0,9,9,5,space,0.333843193,space,0.400446361,space,0.350402901,space,0.617084383,space,0.350625923,space,0.417163171,space,0.367148132,j,1,2.250638081,SPR,25,B,F,59.99938422
3,14,0,10,10,6,space,0.350500399,space,0.633829219,space,0.317184013,space,0.317191513,space,0.283823417,space,0.317124409,space,0.383854679,j,1,0.700537385,SPR,25,B,F,59.99938422
3,65,0,11,11,11,space,0.333768589,space,0.333885429,space,0.333873587,space,0.41714304,space,0.333767405,space,0.233868771,space,0.200425677,f,1,0.783864074,SPR,25,B,F,59.99938422
3,3,0,0,0,7,space,0.334032663,space,0.317341115,space,0.483795154,space,0.400749908,space,0.617040963,space,0.200490018,space,0.233791009,f,1,0.867068396,SPR,25,B,F,59.99938422
2,42,0,1,1,4,space,0.383911915,space,0.517103646,space,0.417138303,space,0.450553372,space,0.41709212,space,0.500579069,space,0.750502689,j,1,1.084054571,SPR,25,B,F,59.99938422
3,8,0,2,2,9,space,0.317259406,space,0.333828193,space,0.350458952,space,0.317132303,space,0.383491133,space,0.35052803,space,0.133849745,j,1,0.933911165,SPR,25,B,F,59.99938422
3,4,0,3,3,8,space,0.250616765,space,0.183866363,space,0.300375625,space,0.400356362,space,0.317472955,space,0.183840706,space,0.300182997,j,1,0.700762381,SPR,25,B,F,59.99938422
1,2,0,4,4,0,space,0.317288616,space,0.250791236,space,0.317349405,space,0.317232565,space,0.333835298,space,0.450600345,space,0.300483781,j,1,1.550478452,SPR,25,B,F,59.99938422
2,43,0,5,5,5,space,0.250149405,space,0.450407322,space,0.483818838,space,0.417125277,space,0.417218433,space,0.400507149,space,0.316821256,f,1,1.650455637,SPR,25,B,F,59.99938422
3,1,0,6,6,6,space,0.383976256,space,0.300311284,space,0.367110238,space,0.267176079,space,0.483713445,space,0.350540267,space,0.283818285,f,1,0.834069373,SPR,25,B,F,59.99938422
1,3,0,7,7,1,space,0.383876784,space,0.450490215,space,0.56719921,space,0.467173474,space,0.617212275,space,0.51723588,space,0.500469334,f,1,0.683471634,SPR,25,B,F,59.99938422
1,16,0,8,8,2,space,0.250502689,space,0.250723737,space,0.400472413,space,0.417260669,space,0.333794246,space,0.38400665,space,0.383367977,f,0,1.733860482,SPR,25,B,F,59.99938422
3,10,0,9,9,11,space,0.61721346,space,0.350462505,space,0.500604726,space,0.333748852,space,0.383859416,space,0.367147342,space,0.300384704,j,1,0.68341045,SPR,25,B,F,59.99938422
3,9,0,10,10,10,space,0.200561069,space,0.183852548,space,0.500512754,space,0.250569398,space,0.200464755,space,0.183762944,space,0.200835801,f,1,0.83410253,SPR,25,B,F,59.99938422
2,37,0,11,11,3,space,0.234010085,space,0.400504386,space,0.517143908,space,0.983960941,space,0.400443203,space,0.400769644,space,1.133873429,f,1,9.000349731,SPR,25,B,F,59.99938422
3,16,0,0,0,8,space,0.334016874,space,0.583743129,space,0.433775773,space,0.38375876,space,0.333872797,space,0.36720971,space,0.383823496,j,1,0.867330497,SPR,25,B,F,59.99938422
1,32,0,1,1,2,space,0.283771312,space,0.416758573,space,0.334044505,space,0.367352207,space,0.467189263,space,0.433891034,space,0.983739892,j,1,1.267102659,SPR,25,B,F,59.99938422
3,39,0,2,2,6,space,0.266848453,space,0.250597818,space,0.466811506,space,0.217151171,space,0.217308669,space,0.350443558,space,0.300256022,f,1,0.750498346,SPR,25,B,F,59.99938422
3,20,0,3,3,9,space,0.3006247,space,0.383798233,space,0.334057926,space,0.233822983,space,0.283810785,space,0.250526372,space,0.333792667,j,1,1.017421403,SPR,25,B,F,59.99938422
1,26,0,4,4,0,space,0.26731305,space,0.250674396,space,0.450493768,space,0.317391246,space,0.617137672,space,0.500582227,space,0.5671475,j,1,0.867392075,SPR,25,B,F,59.99938422
2,57,0,5,5,3,space,0.367240893,space,0.367204578,space,0.533772694,space,0.417116988,space,0.417275669,space,0.383911521,space,0.450529293,f,1,0.717143277,SPR,25,B,F,59.99938422
3,55,0,6,6,10,space,0.317246775,space,0.417307247,space,0.367307603,space,0.367129974,space,0.333849508,space,0.20051607,space,0.200502649,f,1,0.967222025,SPR,25,B,F,59.99938422
2,63,0,7,7,5,space,0.267104238,space,0.233729432,space,0.250527951,space,0.283702235,space,0.367074712,space,0.500597226,space,0.317363615,f,1,6.31720296,SPR,25,B,F,59.99938422
2,62,0,8,8,4,space,0.283845916,space,0.483820022,space,0.683836364,space,0.700720145,space,0.71720446,space,0.367126816,space,0.633547777,j,1,4.817276774,SPR,25,B,F,59.99938422
1,30,0,9,9,1,space,0.300541806,space,0.417284748,space,0.467174263,space,0.633773562,space,0.550375822,space,0.333791483,space,0.433825509,j,1,4.317231775,SPR,25,B,F,59.99938422
3,60,0,10,10,11,space,0.38388981,space,0.350476715,space,0.383731524,space,0.28380447,space,0.350391059,space,0.267185158,space,0.250714658,j,1,0.700236601,SPR,25,B,F,59.99938422
3,40,0,11,11,7,space,0.250781763,space,0.366458144,space,0.317290195,space,0.400700567,space,0.300458518,space,0.217118014,space,0.333502936,j,1,1.56710408,SPR,25,B,F,59.99938422
