Type,ID,practicetrials.thisRepN,practicetrials.thisTrialN,practicetrials.thisN,practicetrials.thisIndex,key_resp_12.keys,key_resp_12.rt,Atests1.keys,Atests1.rt,Atests2.keys,Atests2.rt,Atests3.keys,Atests3.rt,Atests4.keys,Atests4.rt,Atests5.keys,Atests5.rt,Atests6.keys,Atests6.rt,key_resp_8.keys,key_resp_8.corr,key_resp_8.rt,expName,participant,version,Gender,frameRate
3,65,0,0,0,11,space,1.834005822,space,0.600424808,space,0.817396378,space,0.683830443,space,0.450434953,space,0.4337588,space,0.450481531,f,1,1.183839522,SPR,4,B,M,59.8938479
1,33,0,1,1,4,space,0.600618226,space,0.617372141,space,1.033790062,space,0.70043515,space,0.533790852,space,1.650703922,space,1.1838561,f,1,5.650261035,SPR,4,B,M,59.8938479
3,33,0,2,2,8,space,0.61724267,space,0.667329155,space,0.583677604,space,0.583700498,space,0.417074357,space,0.467158869,space,0.533825193,f,1,1.100471386,SPR,4,B,M,59.8938479
1,25,0,3,3,2,space,0.450582977,space,1.01758048,space,1.000544727,space,1.21718946,space,0.800456939,space,1.11719846,space,1.033944402,f,1,5.067282498,SPR,4,B,M,59.8938479
3,35,0,4,4,9,space,0.333790299,space,0.50045236,space,0.633781852,space,0.433818009,space,0.350453821,space,0.383780865,space,0.350524478,f,1,0.88378047,SPR,4,B,M,59.8938479
3,63,0,5,5,10,space,0.450198904,space,0.600502175,space,0.717151566,space,0.683917678,space,0.600572043,space,0.433446568,space,0.300488123,f,1,0.700464755,SPR,4,B,M,59.8938479
2,34,0,6,6,1,space,0.283883021,space,0.73371759,space,0.917163566,space,0.800439571,space,0.983750155,space,0.750535056,space,0.784014071,j,1,2.08393852,SPR,4,B,M,59.8938479
1,17,0,7,7,0,space,0.350539477,space,0.450560477,space,0.467177421,space,0.583760497,space,0.533791246,space,2.467214131,space,0.767173316,f,1,3.217288932,SPR,4,B,M,59.8938479
3,15,0,8,8,7,space,0.417276064,space,0.53393177,space,0.550180036,space,0.600344678,space,0.55040148,space,0.683802417,space,0.467073607,f,1,1.483766339,SPR,4,B,M,59.8938479
2,54,0,9,9,5,space,0.417214881,space,0.417285537,space,0.550523057,space,3.533596645,space,0.934080899,space,0.883872048,space,1.983752918,j,1,3.000203681,SPR,4,B,M,59.8938479
3,14,0,10,10,6,space,0.467223604,space,0.600642304,space,0.667136527,space,0.783826969,space,0.600456781,space,0.450705738,space,0.367988117,j,1,1.867059712,SPR,4,B,M,59.8938479
2,48,0,11,11,3,space,0.367169053,space,0.533677564,space,0.583795628,space,0.617102146,space,1.083610105,space,1.267109764,space,1.067151842,j,1,4.617266353,SPR,4,B,M,59.8938479
3,10,0,0,0,11,space,0.567315655,space,0.750849261,space,0.633867903,space,0.466794533,space,0.550624107,space,0.450535609,space,0.450174431,j,1,1.183756234,SPR,4,B,M,59.8938479
2,37,0,1,1,3,space,0.717183144,space,0.517100093,space,1.267226209,space,1.050515162,space,1.150525109,space,0.91717146,space,2.150441426,f,1,5.283856969,SPR,4,B,M,59.8938479
3,1,0,2,2,6,space,0.367181684,space,0.400437676,space,0.550401085,space,0.367058923,space,0.367166289,space,0.317383746,space,0.350428164,f,1,1.017146671,SPR,4,B,M,59.8938479
2,42,0,3,3,4,space,0.267278314,space,0.400517017,space,0.433796299,space,0.483968046,space,0.550395954,space,0.933935244,space,1.467102027,j,1,5.850807894,SPR,4,B,M,59.8938479
1,3,0,4,4,1,space,0.300516938,space,0.467154921,space,0.46712729,space,0.667190605,space,0.417467903,space,1.433626565,space,1.983842127,f,1,2.867126816,SPR,4,B,M,59.8938479
1,16,0,5,5,2,space,0.467194394,space,1.000476439,space,0.617207539,space,0.783856574,space,1.700480544,space,1.050545951,space,0.850720658,f,0,11.5171443,SPR,4,B,M,59.8938479
3,8,0,6,6,9,space,0.950505215,space,0.783857364,space,0.750548082,space,0.734006532,space,0.867120501,space,0.633680406,space,0.633824088,j,1,2.583835101,SPR,4,B,M,59.8938479
2,43,0,7,7,5,space,0.467270182,space,0.650459979,space,0.750437163,space,0.667213499,space,1.18376176,space,0.583875363,space,3.483734366,f,1,3.500607884,SPR,4,B,M,59.8938479
3,4,0,8,8,8,space,0.383551132,space,0.483841338,space,0.467152158,space,0.433623802,space,0.633771589,space,0.450414822,space,0.400472807,j,1,1.300550885,SPR,4,B,M,59.8938479
1,2,0,9,9,0,space,0.317236512,space,0.617119119,space,0.600452045,space,0.58372655,space,0.566995135,space,1.833806483,space,1.033846903,j,1,8.100119287,SPR,4,B,M,59.8938479
3,9,0,10,10,10,space,0.450743237,space,0.617195697,space,0.500098288,space,0.517441929,space,0.550488715,space,0.617166487,space,0.50065012,f,1,3.7504269,SPR,4,B,M,59.8938479
3,3,0,11,11,7,space,0.366828401,space,0.367091291,space,0.466738086,space,0.367212473,space,0.367139448,space,0.350445137,space,0.350543819,f,1,1.28392881,SPR,4,B,M,59.8938479
3,43,0,0,0,6,space,0.367345102,space,0.500504465,space,0.40042465,space,0.383857443,space,0.350468031,space,0.333821088,space,0.367188394,f,1,1.050519504,SPR,4,B,M,59.8938479
2,53,0,1,1,5,space,0.300540622,space,0.383401529,space,0.617158987,space,0.550455558,space,0.567084738,space,1.10052507,space,1.083757339,f,1,4.817084541,SPR,4,B,M,59.8938479
1,23,0,2,2,2,space,0.417099225,space,0.433792746,space,0.433849193,space,0.483853574,space,0.450485084,space,0.667170474,space,1.16708837,f,1,1.850471979,SPR,4,B,M,59.8938479
3,24,0,3,3,8,space,0.40055649,space,0.367329313,space,0.683820575,space,0.483874495,space,0.400502017,space,0.367164711,space,0.417148961,j,1,2.01714825,SPR,4,B,M,59.8938479
2,51,0,4,4,3,space,0.333802536,space,0.383821127,space,0.400657541,space,1.733827719,space,0.867068002,space,0.567128553,space,1.967132816,f,1,2.150402348,SPR,4,B,M,59.8938479
1,18,0,5,5,0,space,0.383877968,space,0.350501189,space,0.650390506,space,0.533698485,space,0.700533833,space,1.550606345,space,0.733779562,j,1,3.250612029,SPR,4,B,M,59.8938479
2,52,0,6,6,4,space,0.367339181,space,0.433447358,space,0.517015621,space,0.6504434,space,0.533785325,space,0.733785089,space,2.400444782,j,1,4.300488912,SPR,4,B,M,59.8938479
3,30,0,7,7,11,space,0.317270459,space,0.333721221,space,0.600557832,space,0.53380822,space,0.516813125,space,0.400590437,space,0.40062991,j,1,1.966978477,SPR,4,B,M,59.8938479
3,48,0,8,8,7,space,0.300572595,space,0.617282932,space,0.617230038,space,0.517022726,space,0.450545872,space,0.550305955,space,0.45051982,j,1,1.800685093,SPR,4,B,M,59.8938479
1,19,0,9,9,1,space,0.383956125,space,0.666789559,space,0.633832377,space,0.73375351,space,0.682590991,space,0.985057895,space,1.617320431,f,1,4.867331681,SPR,4,B,M,59.8938479
3,29,0,10,10,10,space,0.450520215,space,1.366944451,space,0.667137316,space,0.81718046,space,0.667313366,space,0.517218907,space,0.617214249,f,1,2.800437992,SPR,4,B,M,59.8938479
3,28,0,11,11,9,space,0.40079767,space,0.567183026,space,0.433973138,space,0.46711308,space,0.500538017,space,0.567235525,space,0.450513109,j,1,1.733881797,SPR,4,B,M,59.8938479
1,26,0,0,0,0,space,1.250795973,space,0.767260551,space,0.750436374,space,0.617188592,space,0.667127448,space,0.917240143,space,0.683815838,j,1,6.350586845,SPR,4,B,M,59.8938479
1,30,0,1,1,1,space,0.567123817,space,0.867335629,space,0.800453387,space,0.717249459,space,0.650152879,space,0.883837311,space,0.967267814,j,1,2.117296353,SPR,4,B,M,59.8938479
3,55,0,2,2,10,space,0.36712208,space,0.600452045,space,0.550446874,space,0.483836206,space,0.466697035,space,0.417068831,space,0.467190052,f,1,1.300468387,SPR,4,B,M,59.8938479
3,60,0,3,3,11,space,0.300132471,space,0.417156066,space,0.467175052,space,0.433786036,space,0.400559648,space,0.383909547,space,0.417124488,j,1,1.433755642,SPR,4,B,M,59.8938479
3,39,0,4,4,6,space,0.350166852,space,0.583811022,space,0.450478373,space,0.567103685,space,0.583849311,space,0.917088962,space,0.517162855,f,1,1.133723432,SPR,4,B,M,59.8938479
3,20,0,5,5,9,space,0.450425479,space,0.500578674,space,0.600559411,space,0.566907505,space,0.467182552,space,0.483835022,space,0.600510859,j,1,2.683792549,SPR,4,B,M,59.8938479
2,63,0,6,6,5,space,0.300534701,space,0.450532846,space,0.483820022,space,0.65050182,space,0.650518004,space,0.917204618,space,1.783985256,f,1,11.0638523,SPR,4,B,M,59.8938479
3,16,0,7,7,8,space,0.350537109,space,0.500246311,space,0.533852035,space,0.550335955,space,0.467293471,space,0.450474821,space,0.467058212,j,1,2.584022598,SPR,4,B,M,59.8938479
2,57,0,8,8,3,space,0.300574174,space,0.466839927,space,0.550523057,space,0.500531701,space,0.967321497,space,0.58379168,space,2.733968243,f,1,4.434147214,SPR,4,B,M,59.8938479
2,62,0,9,9,4,space,0.383808891,space,0.517145882,space,0.667090738,space,0.617101356,space,1.400483465,space,0.617283327,space,1.983842916,j,1,7.317303616,SPR,4,B,M,59.8938479
1,32,0,10,10,2,space,0.333920955,space,0.433788799,space,0.533842956,space,0.533795194,space,0.567179079,space,3.050531346,space,0.78384868,j,1,4.850561187,SPR,4,B,M,59.8938479
3,40,0,11,11,7,space,0.283742102,space,0.467102817,space,0.467110711,space,0.500434598,space,0.333813983,space,0.367184052,space,0.350109616,j,1,1.600403098,SPR,4,B,M,59.8938479
