Sentences,Question,word5,word4,word6,word1,word3,Ans,word2,lenth,Type,ID,practicetrials.thisRepN,practicetrials.thisTrialN,practicetrials.thisN,practicetrials.thisIndex,key_resp_12.keys,key_resp_12.rt,Atests1.keys,Atests1.rt,Atests2.keys,Atests2.rt,Atests3.keys,Atests3.rt,Atests4.keys,Atests4.rt,Atests5.keys,Atests5.rt,Atests6.keys,Atests6.rt,key_resp_8.keys,key_resp_8.corr,key_resp_8.rt,expName,participant,version,Grade,Gender,frameRate,session,date,
童年的回憶總是美好而快樂的,童年的回憶很痛苦?,而,美好,快樂的,童年的,總是,j,回憶,13,3,62,0,0,0,21,space,0.467717933456,space,0.68367853641,space,0.517023448441,space,0.550542593555,space,0.667260206492,space,0.550425359243,space,0.467288469039,j,1,1.46717439255,SPR,huang,B,,female,59.5724047764,001,2016_04_27_1700,
顧客熟悉的職工推薦了商品,職工推薦了商品？,推薦了,職工,商品,顧客,的,f,熟悉,12,2,25,0,1,1,0,space,0.550496805068,space,0.700538962055,space,0.466902819466,space,0.51723581228,space,0.467285311212,space,0.616770111803,space,1.11726431166,f,1,1.65046609521,SPR,huang,B,,female,59.5724047764,001,2016_04_27_1700,
孩子親近的阿姨迷失了方向,阿姨迷路了？,迷失了,阿姨,方向,孩子,的,f,親近,12,2,27,0,2,2,2,space,0.533798612767,space,0.500519067748,space,0.483876532138,space,0.484063633365,space,0.467230049248,space,0.567161050734,space,0.450530672759,f,1,2.51725831179,SPR,huang,B,,female,59.5724047764,001,2016_04_27_1700,
支持小林的研究員分析了案例,小林不懂分析案例？,分析了,研究員,案例,支持,的,j,小林,13,1,64,0,3,3,15,space,0.500470516163,space,0.550505883819,space,0.500617749829,space,0.450687774632,space,0.550216547959,space,0.500444464093,space,0.533921768003,j,1,1.76721331277,SPR,huang,B,,female,59.5724047764,001,2016_04_27_1700,
撞見業務員的藝人衝進了現場,藝人闖進了現場？,衝進了,藝人,現場,撞見,的,f,業務員,13,1,63,0,4,4,14,space,0.41719468159,space,0.517200681459,space,0.46726675898,space,0.58393621506,space,0.417167050606,space,0.601206763433,space,0.633871716453,f,1,2.15069424818,SPR,huang,B,,female,59.5724047764,001,2016_04_27_1700,
小吳批評的評論家說了粗話,評論家說了粗話？,說了,評論家,粗話,小吳,的,f,批評,12,2,29,0,5,5,4,space,0.617253654,space,0.550252468236,space,0.567197365741,space,0.500650512278,space,0.533823480651,space,0.633843296013,space,0.550574566549,f,1,1.20059580293,SPR,huang,B,,female,59.5724047764,001,2016_04_27_1700,
上尉惹怒的服務員扔了盤子,盤子是上尉扔的？,扔了,服務員,盤子,上尉,的,j,惹怒,12,2,30,0,6,6,5,space,0.450611197339,space,0.500517094106,space,0.500516304648,space,0.500450385018,space,0.567216312702,space,0.567192629002,space,0.56722854928,j,1,1.86720076041,SPR,huang,B,,female,59.5724047764,001,2016_04_27_1700,
駕駛員碰見的盜賊撕了名畫,駕駛員毀壞了名畫？,撕了,盜賊,名畫,駕駛員,的,j,碰見,12,2,32,0,7,7,7,space,0.516927924187,space,0.667184813381,space,0.517242917389,space,0.600492699894,space,0.550197600998,space,0.583848190645,space,0.583812665096,j,1,2.18356919666,SPR,huang,B,,female,59.5724047764,001,2016_04_27_1700,
每個人都應該要遵守交通規則,交通規則人人遵守?,交通,遵守,規則,每個人,要,f,都應該,13,3,63,0,8,8,22,space,0.533843611796,space,0.583857664125,space,0.550455753324,space,0.483857190451,space,0.517220417874,space,0.500499726058,space,0.467166497987,f,1,2.23389311073,SPR,huang,B,,female,59.5724047764,001,2016_04_27_1700,
我今天學會了一個新的技能,我今天沒學新技能?,新的,一個,技能,我,學會了,j,今天,12,3,60,0,9,9,19,space,0.467137288091,space,0.566829478943,space,0.500548672371,space,0.617260759111,space,0.584077527799,space,0.517213707493,space,0.533781639449,j,1,1.38383776982,SPR,huang,B,,female,59.5724047764,001,2016_04_27_1700,
朋友們推薦了許多好聽的歌曲,朋友們推薦了歌曲?,的,好聽,歌曲,朋友們,許多,f,推薦了,13,3,57,0,10,10,16,space,0.433847085405,space,0.533742561345,space,0.650528067552,space,0.733844559145,space,0.600499805005,space,0.500241968462,space,0.567213549602,f,1,1.31729525837,SPR,huang,B,,female,59.5724047764,001,2016_04_27_1700,
熱鬧的夜市有很多美味的食物,夜市裡有很多美食?,的,美味,食物,熱鬧的,有很多,f,夜市,13,3,61,0,11,11,20,space,0.500519857203,space,0.633812112475,space,0.550427332882,space,1.0505891715,space,0.517270548373,space,0.533932820397,space,0.550495620882,f,1,1.98403047618,SPR,huang,B,,female,59.5724047764,001,2016_04_27_1700,
隔壁的大伯擅長修理各種電器,大伯不會修理電器?,各種,修理,電器,隔壁的,擅長,j,大伯,13,3,64,0,12,12,23,space,0.467300705617,space,0.650516225704,space,0.483904952578,space,0.617250890902,space,0.483820085987,space,0.583871479615,space,0.500579066453,j,1,1.06709631529,SPR,huang,B,,female,59.5724047764,001,2016_04_27_1700,
捧紅大姑姑的明星拍攝了新片,大姑姑拍攝了新片？,拍攝了,明星,新片,捧紅,的,j,大姑姑,13,1,60,0,13,13,11,space,0.467174787282,space,0.649754005308,space,0.817713275661,space,0.533883479357,space,0.633828296337,space,0.683823401707,space,0.500499726058,j,1,1.50061261836,SPR,huang,B,,female,59.5724047764,001,2016_04_27_1700,
責備治療師的婦女察覺了動靜,治療師察覺了動靜？,察覺了,婦女,動靜,責備,的,j,治療師,13,1,62,0,14,14,13,space,0.583619248217,space,0.550546540839,space,0.567256969718,space,0.583880163638,space,0.567248680423,space,0.51720976021,space,0.483824428,j,1,1.46717873456,SPR,huang,B,,female,59.5724047764,001,2016_04_27_1700,
犯人檢舉的同伴知道了敵情,犯人知道了敵情？,知道了,同伴,敵情,犯人,的,j,檢舉,12,2,26,0,15,15,1,space,0.483873374311,space,0.550545356653,space,0.550560356329,space,0.66692350323,space,0.70054922499,space,0.733879689964,space,1.31734538886,j,1,2.31731815261,SPR,huang,B,,female,59.5724047764,001,2016_04_27_1700,
叔叔協助的警察破了大案件,警察偵破了大案件？,破了,警察,大案件,叔叔,的,f,協助,12,2,31,0,16,16,6,space,0.567192234274,space,0.717180708207,space,0.517168708464,space,0.517199892003,space,0.550804693161,space,0.717204391905,space,0.767272522013,f,1,1.65043412221,SPR,huang,B,,female,59.5724047764,001,2016_04_27_1700,
小明昨天吃了一碗美味的小米粥,小明昨天沒吃小米粥?,的,美味,小米粥,小明,吃了一碗,j,昨天,12,3,58,0,17,17,17,space,0.550562724698,space,0.900749904871,space,0.600282309697,space,0.567210786505,space,0.467293600506,space,0.46713294608,space,0.517198313089,j,1,1.38370593056,SPR,huang,B,,female,59.5724047764,001,2016_04_27_1700,
詆毀代理商的律師吃上了官司,律師碰上了官司？,吃上了,律師,官司,詆毀,的,f,代理商,13,1,61,0,18,18,12,space,0.500587750475,space,0.633764745076,space,0.500536830521,space,0.600618223503,space,0.58397845099,space,0.733870216483,space,0.700574092876,f,1,2.51709568373,SPR,huang,B,,female,59.5724047764,001,2016_04_27_1700,
責罵小明的管理員掄起了拳頭,管理員握起了拳頭？,掄起了,管理員,拳頭,責罵,的,f,小明,13,1,59,0,19,19,10,space,0.500385649573,space,0.517340810015,space,0.50040735963,space,0.550690221948,space,0.617113130716,space,0.683929188897,space,0.66731704737,f,1,1.7504989366,SPR,huang,B,,female,59.5724047764,001,2016_04_27_1700,
討好主播的發言人處理了糾紛,發言人擺平了糾紛？,處理了,發言人,糾紛,討好,的,f,主播,13,1,57,0,20,20,8,space,0.483941662311,space,0.483849690612,space,0.517152919332,space,0.633870532269,space,0.63378290258,space,0.783921373275,space,0.717129393523,f,1,2.75055380384,SPR,huang,B,,female,59.5724047764,001,2016_04_27_1700,
侮辱空服員的旅客拿出了凶器,空服員把凶器藏了起來？,拿出了,旅客,凶器,侮辱,的,j,空服員,13,1,58,0,21,21,9,space,0.466872030656,space,1.33387897945,space,0.567198944655,space,0.60049388408,space,0.450458832203,space,0.517200286729,space,0.550489699959,j,1,1.63405092311,SPR,huang,B,,female,59.5724047764,001,2016_04_27_1700,
媽媽的拿手菜是糖醋排骨,媽媽會煮糖醋排骨?,糖醋,是,排骨,媽媽,拿手菜,f,的,11,3,59,0,22,22,18,space,0.517194365806,space,0.500472884532,space,0.46707847357,space,1.03354164463,space,0.41685245213,space,0.517258311795,space,0.400674906488,f,1,1.40067016975,SPR,huang,B,,female,59.5724047764,001,2016_04_27_1700,
市民信任的委員爭到了選票,委員放棄了選票？,爭到了,委員,選票,市民,的,j,信任,12,2,28,0,23,23,3,space,0.533828612119,space,0.667250338283,space,0.517214496951,space,0.450711458332,space,0.500561698405,space,0.500500120786,space,0.450583566355,j,1,2.00056327732,SPR,huang,B,,female,59.5724047764,001,2016_04_27_1700,
指使搶匪的殺手發生了不測,殺手遭遇不測了？,發生了,殺手,不測,指使,的,f,搶匪,12,1,35,0,0,0,10,space,0.967571094519,space,1.06710420985,space,0.467170050541,space,0.467333862794,space,0.450625802285,space,0.4838216649,space,0.550558382687,f,1,1.56717605041,SPR,huang,B,,female,59.5724047764,001,2016_04_27_1700,
招待船長的賓客接受了訪問,賓客接受了訪問？,接受了,賓客,訪問,招待,的,f,船長,12,1,37,0,1,1,12,space,0.533858216744,space,0.517236207008,space,0.567141709047,space,0.517441860466,space,0.433919715417,space,0.483839822404,space,0.666978370467,f,1,0.967157024506,SPR,huang,B,,female,59.5724047764,001,2016_04_27_1700,
掩護戰士的村民躲進了樹洞,村民跑出了樹洞？,躲進了,村民,樹洞,掩護,的,j,戰士,12,1,40,0,2,2,15,space,0.483878900508,space,0.517191997436,space,0.617168392682,space,0.600205337674,space,0.567103025671,space,0.650550172339,space,0.933928004712,j,1,1.33392397848,SPR,huang,B,,female,59.5724047764,001,2016_04_27_1700,
工人表揚的廠長漲了薪水,廠長上調了薪水？,漲了,廠長,薪水,工人,的,f,表揚,11,2,3,0,3,3,2,space,0.683943793843,space,0.683770902839,space,0.600205337674,space,0.650774772756,space,0.417270469428,space,1.28382150701,space,0.700455279648,f,1,1.36737957234,SPR,huang,B,,female,59.5724047764,001,2016_04_27_1700,
小張崇拜的作家寫了首詩,作家會寫詩歌？,寫了,作家,詩歌,小張,的,f,崇拜,11,2,1,0,4,4,0,space,0.5171789714,space,0.667176524086,space,0.717186629132,space,0.483869427027,space,0.53398413508,space,0.467269916808,space,0.567159866549,f,1,1.08386161141,SPR,huang,B,,female,59.5724047764,001,2016_04_27_1700,
善待動物們是對生命的尊重,應該善待動物?,的,生命,尊重,善待,是對,f,動物們,12,3,35,0,5,5,18,space,0.567189076446,space,0.58386555869,space,0.450611592065,space,0.567230917648,space,1.18395642515,space,0.48385048007,space,0.600448490322,f,1,1.033990056,SPR,huang,B,,female,59.5724047764,001,2016_04_27_1700,
小潘舉薦的水手開啟了旅程,水手開啟了旅程？,開啟了,水手,旅程,小潘,的,f,舉薦,12,2,7,0,6,6,6,space,0.516878583147,space,0.583833190969,space,0.933623669172,space,0.90054030413,space,0.550406412282,space,0.583549776031,space,0.583881742552,f,1,0.933814322954,SPR,huang,B,,female,59.5724047764,001,2016_04_27_1700,
留學的生活能夠磨礪人的意志,留學生活能鍛鍊人?,人的,磨礪,意志,留學的,能夠,f,生活,13,3,37,0,7,7,20,space,0.533723219656,space,0.600564540449,space,0.667232970236,space,0.48389468964,space,0.550524436052,space,0.467359125409,space,0.534832011521,f,1,1.01755791059,SPR,huang,B,,female,59.5724047764,001,2016_04_27_1700,
每年都會頒布新的法規制度,每年不會有新制度?,法規,的,制度,每年,新,j,都會頒布,12,3,34,0,8,8,17,space,0.70024765255,space,0.63336133273,space,0.483867848114,space,0.517435939539,space,0.467215444298,space,0.500300782984,space,0.550292335796,j,1,2.26727804821,SPR,huang,B,,female,59.5724047764,001,2016_04_27_1700,
愛慕局長的學生考上了大學,學生考上了大學？,考上了,學生,大學,愛慕,的,f,局長,12,1,33,0,9,9,8,space,0.60054519876,space,0.56729644255,space,0.46724347001,space,0.450463568945,space,0.550626670689,space,0.617181813444,space,0.434130500342,f,1,1.01721291804,SPR,huang,B,,female,59.5724047764,001,2016_04_27_1700,
和朋友們一起喝下午茶很開心,喝下午茶很開心?,下午茶,喝,很開心,和,一起,f,朋友們,13,3,39,0,10,10,22,space,0.517199102545,space,0.650576224407,space,0.483850874796,space,0.667187181749,space,0.467141235375,space,0.600516778322,space,0.533894926477,f,1,0.983858769363,SPR,huang,B,,female,59.5724047764,001,2016_04_27_1700,
阿姨親手製作了一個生日蛋糕,阿姨沒做蛋糕?,生日,一個,蛋糕,阿姨,製作了,j,親手,13,3,38,0,11,11,21,space,0.467224128321,space,0.517083052418,space,0.517443439378,space,0.583854506298,space,0.450671590772,space,0.433948925313,space,0.416848899577,j,1,1.08384029608,SPR,huang,B,,female,59.5724047764,001,2016_04_27_1700,
弟弟傷害的同學打了老師,同學推開了老師？,打了,同學,老師,弟弟,的,j,傷害,11,2,4,0,12,12,3,space,0.534492150433,space,0.483696141295,space,0.584508176404,space,0.567226180909,space,0.667022185311,space,0.500392754682,space,0.950519620366,j,1,1.7838617693,SPR,huang,B,,female,59.5724047764,001,2016_04_27_1700,
徐總賞識的詩人獲得了好評,徐總獲得了好評？,獲得了,詩人,好評,徐總,的,j,賞識,12,2,8,0,13,13,7,space,0.484054554612,space,0.650680037957,space,0.566866188678,space,0.53374848227,space,0.450827113731,space,0.567189865904,space,0.550764430873,j,1,1.35051243631,SPR,huang,B,,female,59.5724047764,001,2016_04_27_1700,
救治嬸嬸的鄰居染上了毒癮,嬸嬸染上了毒癮？,染上了,鄰居,毒癮,救治,的,j,嬸嬸,12,1,38,0,14,14,13,space,0.867223654648,space,1.01728160077,space,0.567186708076,space,0.517122525251,space,0.467194918425,space,0.500498541875,space,0.617205497145,j,1,1.05070837945,SPR,huang,B,,female,59.5724047764,001,2016_04_27_1700,
爺爺一句話就把大家逗開心了,爺爺把大家逗開心了?,逗,大家,開心了,爺爺,就把,f,一句話,12,3,33,0,15,15,16,space,0.483863506104,space,0.533857032558,space,0.500604329065,space,0.483884426705,space,0.517408703286,space,0.550539830456,space,0.583809507269,f,1,1.31738051968,SPR,huang,B,,female,59.5724047764,001,2016_04_27_1700,
襲擊刺客的鐵匠鑄造了寶劍,鐵匠救了刺客？,鑄造了,鐵匠,寶劍,襲擊,的,f,刺客,12,1,39,0,16,16,14,space,0.650475963412,space,0.650506357493,space,0.567191444816,space,0.483882058334,space,0.533972293229,space,0.600560987894,space,0.517239759562,j,0,1.95050501542,SPR,huang,B,,female,59.5724047764,001,2016_04_27_1700,
誣陷主人的管家怒斥了園丁,主人誇獎了園丁？,怒斥了,管家,園丁,誣陷,的,j,主人,12,1,34,0,17,17,9,space,0.850582303223,space,0.967210707558,space,0.483819691261,space,0.883830269979,space,0.733979556231,space,0.867180234531,space,1.1339044789,j,1,1.8672982583,SPR,huang,B,,female,59.5724047764,001,2016_04_27_1700,
房東厭惡的小孩吃了蘋果,房東扔掉蘋果？,吃了,小孩,蘋果,房東,的,j,厭惡,11,2,2,0,18,18,1,space,0.500629986405,space,0.533823875379,space,0.633911584013,space,0.65050043657,space,0.517382651216,space,0.667146919461,space,0.750554198567,j,1,1.38394553065,SPR,huang,B,,female,59.5724047764,001,2016_04_27_1700,
手機是個既方便又重要的發明,手機是個不好的發明?,的,又重要,發明,手機,既方便,j,是個,13,3,36,0,19,19,19,space,0.55059311878,space,0.633827506879,space,0.617430887018,space,0.550549303936,space,0.450505410146,space,0.500443674637,space,0.56751827987,j,1,1.60042638554,SPR,huang,B,,female,59.5724047764,001,2016_04_27_1700,
賄賂小陳的企劃員擅長宣傳,小陳不懂宣傳？,擅長,企劃員,宣傳,賄賂,的,j,小陳,12,1,36,0,20,20,11,space,0.500509199539,space,0.633835796174,space,0.633863427158,space,0.516854899446,space,0.517148972049,space,0.550700484884,space,0.517217654777,j,1,1.58383161206,SPR,huang,B,,female,59.5724047764,001,2016_04_27_1700,
小周羞辱的導演做了壞事,導演做了不好的事？,做了,導演,壞事,小周,的,f,羞辱,11,2,5,0,21,21,4,space,0.500629196949,space,0.566933292492,space,0.55067324863,space,0.584014371268,space,0.667178497726,space,0.534112027057,space,0.616924055848,f,1,1.53390558414,SPR,huang,B,,female,59.5724047764,001,2016_04_27_1700,
領隊欽佩的組長煮了美食,組長討厭領隊？,煮了,組長,美食,領隊,的,j,欽佩,11,2,6,0,22,22,5,space,0.533934794039,space,0.567252232979,space,0.517186865967,space,0.583889637119,space,0.433819059694,space,0.683860506169,space,0.500663143584,j,1,2.0171943658,SPR,huang,B,,female,59.5724047764,001,2016_04_27_1700,
聽說吃黑巧克力可以提高智商,巧克力不能提高智商?,提高,可以,智商,聽說,黑巧克力,j,吃,13,3,40,0,23,23,23,space,0.517402782361,space,0.56732723136,space,0.599303778183,space,0.517545674014,space,0.450804219488,space,0.416900214257,space,0.533875190062,j,1,1.53387203224,SPR,huang,B,,female,59.5724047764,001,2016_04_27_1700,
表哥結識的中醫師開了偏方,中醫生開錯了偏方？,開了,中醫師,偏方,表哥,的,j,結識,12,2,20,0,0,0,3,space,0.684278918192,space,0.767188444881,space,0.600580329583,space,0.484064422821,space,0.600544014576,space,0.533681773184,space,0.550377991842,j,1,1.96722886506,SPR,huang,B,,female,59.5724047764,001,2016_04_27_1700,
校園門口的那棵樹長滿了新葉,樹長滿了新葉?,長滿了,樹,新葉,校園門口,那棵,f,的,13,3,49,0,1,1,16,space,2.11718773437,space,0.600501383919,space,0.617386677446,space,0.466675455951,space,0.450542514609,space,0.400494515645,space,0.450513699441,f,1,1.3670961574,SPR,huang,B,,female,59.5724047764,001,2016_04_27_1700,
拉攏貴族的青年當上了執行長,貴族當上了執行長？,當上了,青年,執行長,拉攏,的,j,貴族,13,1,54,0,2,2,13,space,0.667315073728,space,0.55048496322,space,0.483858769363,space,0.367324705097,space,0.400518199343,space,0.567098683659,space,1.11712891985,f,0,1.63377974475,SPR,huang,B,,female,59.5724047764,001,2016_04_27_1700,
每個人的相處方式都不一樣,相處方式都一樣的?,都,方式,不一樣,每個人,相處,j,的,12,3,50,0,3,3,17,space,0.533830585762,space,1.75074248398,space,0.550625091773,space,0.566835794596,space,0.500442490451,space,0.433767745011,space,0.417183234467,j,1,1.48399258227,SPR,huang,B,,female,59.5724047764,001,2016_04_27_1700,
老婆迷戀的編輯出版了新書,編輯出版了新書？,出版了,編輯,新書,老婆,的,f,迷戀,12,2,17,0,4,4,0,space,0.717121104228,space,0.567258153904,space,0.632920026463,space,0.717427413409,space,0.467372151445,space,0.617218523179,space,0.88385119058,f,1,1.60066914345,SPR,huang,B,,female,59.5724047764,001,2016_04_27_1700,
表姐熟識的院士解釋了理論,表姐解釋了理論？,解釋了,院士,理論,表姐,的,j,熟識,12,2,24,0,5,5,7,space,0.533858216744,space,0.717211497016,space,0.650649249148,space,0.483783376254,space,0.50053012014,space,0.567171313673,space,0.467487806842,j,1,1.16742401874,SPR,huang,B,,female,59.5724047764,001,2016_04_27_1700,
袒護隊長的消防員聲援了遊行,隊長聲援了遊行？,聲援了,消防員,遊行,袒護,的,j,隊長,13,1,52,0,6,6,11,space,0.483753376902,space,0.683635905752,space,0.567294074181,space,0.58381148091,space,0.700545672436,space,0.583532013257,space,0.533945846431,j,1,2.7671426564,SPR,huang,B,,female,59.5724047764,001,2016_04_27_1700,
小郭取笑的廚師偷聽了對話,小郭表揚了廚師？,偷聽了,廚師,對話,小郭,的,j,取笑,12,2,22,0,7,7,5,space,0.500613407816,space,0.650223732015,space,0.600584276866,space,0.567249075153,space,0.800237863288,space,0.533917425992,space,0.750557356394,j,1,2.40058293479,SPR,huang,B,,female,59.5724047764,001,2016_04_27_1700,
照顧小崔的飛行員擊落了敵機,飛行員打落了敵機？,擊落了,飛行員,敵機,照顧,的,f,小崔,13,1,49,0,8,8,8,space,0.600509673211,space,0.817227365094,space,0.46717241891,space,0.467384782751,space,0.516841083954,space,0.800510225832,space,0.784002292583,f,1,1.58398476664,SPR,huang,B,,female,59.5724047764,001,2016_04_27_1700,
上司嘲笑的會計偽造了帳目,會計偽造了帳目？,偽造了,會計,帳目,上司,的,f,嘲笑,12,2,23,0,9,9,6,space,0.550631802156,space,0.550599829163,space,0.600540462021,space,0.667143366905,space,0.750408543816,space,0.717109657107,space,0.817211575961,f,1,1.50020407454,SPR,huang,B,,female,59.5724047764,001,2016_04_27_1700,
農夫辱罵的木匠造出了新房,木匠造出了新房？,造出了,木匠,新房,農夫,的,f,辱罵,12,2,19,0,10,10,2,space,0.48383863822,space,0.550519699311,space,0.533733087866,space,0.517225154616,space,0.533829401576,space,0.767180550316,space,0.783852295819,f,1,2.28394032023,SPR,huang,B,,female,59.5724047764,001,2016_04_27_1700,
雇主同情的技工拿到了專利,雇主毆打了技工？,拿到了,技工,專利,雇主,的,j,同情,12,2,18,0,11,11,1,space,0.633926978418,space,0.617204707689,space,0.534028739381,space,0.500510383723,space,0.450741457684,space,0.883889479228,space,0.533892558109,j,1,2.06721749689,SPR,huang,B,,female,59.5724047764,001,2016_04_27_1700,
親近大自然的最好方式是旅遊,旅遊能夠親近大自然?,是,最好方式,旅遊,親近,的,f,大自然,13,3,55,0,12,12,22,space,0.483806270495,space,0.667082184016,space,0.600531777998,space,0.533857032558,space,0.667242443717,space,0.500526172857,space,0.767265811632,f,1,1.76692358218,SPR,huang,B,,female,59.5724047764,001,2016_04_27_1700,
忽視小白的企業家投資了廣告,企業家投資了廣告？,投資了,企業家,廣告,忽視,的,f,小白,13,1,55,0,13,13,14,space,0.500517488834,space,0.667155603483,space,0.517477780742,space,0.517199892003,space,0.550548119751,space,0.500194206335,space,0.500584592648,f,1,1.15058490843,SPR,huang,B,,female,59.5724047764,001,2016_04_27_1700,
週六有場精彩的戲劇要公演了,週六沒有戲劇公演?,戲劇,的,要公演了,週六,精彩,j,有場,13,3,54,0,14,14,21,space,0.5338617693,space,0.867201549861,space,0.549654060096,space,0.584785275687,space,0.5172500225,space,0.650466489933,space,0.617147866809,j,1,1.41688324094,SPR,huang,B,,female,59.5724047764,001,2016_04_27_1700,
驅趕交警的行政人員亂扔垃圾,行政人員亂扔垃圾？,亂扔,行政人員,垃圾,驅趕,的,f,交警,13,1,53,0,15,15,12,space,0.567233286019,space,0.566896582759,space,0.61756233155,space,0.45054725135,space,0.666886793497,space,0.633808165192,space,0.517090946985,f,1,1.78404334433,SPR,huang,B,,female,59.5724047764,001,2016_04_27_1700,
音樂可以讓人身心得到放鬆,音樂會讓人放鬆?,得到,身心,放鬆,音樂,讓人,f,可以,12,3,51,0,16,16,18,space,0.567247890967,space,0.683876295301,space,0.60045401652,space,0.533646247633,space,0.4172227073,space,0.55088955975,space,0.483954688347,f,1,1.03357322289,SPR,huang,B,,female,59.5724047764,001,2016_04_27_1700,
博物館裡有很多珍貴的收藏品,博物館沒有收藏品?,的,珍貴,收藏品,博物館裡,很多,j,有,13,3,56,0,17,17,23,space,0.433813138769,space,0.550522067682,space,0.650545435599,space,0.550677590641,space,0.483812191422,space,0.43381550714,space,0.467139656461,j,1,1.25104760897,SPR,huang,B,,female,59.5724047764,001,2016_04_27_1700,
桌子上擺滿了一大堆舊的文件,桌上沒有文件?,的,舊,文件,桌子上,一大堆,j,擺滿了,12,3,52,0,18,18,19,space,0.633935267713,space,0.750546304002,space,0.783312307471,space,0.45025002092,space,0.550843771265,space,0.417068763254,space,0.483780613155,j,1,1.65060464485,SPR,huang,B,,female,59.5724047764,001,2016_04_27_1700,
輕視政府的逃亡者認清了事實,政府認清了事實？,認清了,逃亡者,事實,輕視,的,j,政府,13,1,56,0,19,19,15,space,0.550556409047,space,0.517178576672,space,0.550545356653,space,0.567155524539,space,0.750601171238,space,0.66714928783,space,0.517416992581,j,1,1.93382103334,SPR,huang,B,,female,59.5724047764,001,2016_04_27_1700,
表弟砍傷的疑犯發現了秘密,疑犯發現了秘密？,發現了,疑犯,秘密,表弟,的,f,砍傷,12,2,21,0,20,20,4,space,0.517161603355,space,0.600726773791,space,0.533870058594,space,0.517163182269,space,0.700530278031,space,0.767164366453,space,0.500498147145,f,1,1.46724465419,SPR,huang,B,,female,59.5724047764,001,2016_04_27_1700,
督促小謝的技術員趕上了進度,技術員落下了進度？,趕上了,技術員,進度,督促,的,j,小謝,13,1,50,0,21,21,9,space,0.633856716777,space,0.850589013606,space,0.884235655967,space,0.550769167612,space,0.600552303871,space,0.783894531751,space,0.883990529677,j,1,1.43386721655,SPR,huang,B,,female,59.5724047764,001,2016_04_27_1700,
每週都有寫不完的作業和報告,每週都有作業?,作業和,的,報告,每週,寫不完,f,都有,13,3,53,0,22,22,20,space,0.583845032817,space,0.634046975827,space,0.517389361597,space,0.583859637765,space,0.517189234337,space,0.63388868977,space,0.467330310241,f,1,1.06723249656,SPR,huang,B,,female,59.5724047764,001,2016_04_27_1700,
資助航海家的演員擔任了主角,演員當上了主角？,擔任了,演員,主角,資助,的,f,航海家,13,1,51,0,23,23,10,space,0.450534225314,space,0.617112341261,space,0.800719431843,space,0.550578513832,space,0.700417780457,space,0.633791191874,space,1.53386690077,f,1,1.78386216403,SPR,huang,B,,female,59.5724047764,001,2016_04_27_1700,
張三認識的司機違反了規定,司機不遵守規定？,違反了,司機,規定,張三,的,f,認識,12,2,9,0,0,0,0,space,1.50094497961,space,0.867206681331,space,0.550289967428,space,0.534102553576,space,0.484041923306,space,0.550556409047,space,0.533942293876,f,1,1.10057243502,SPR,huang,B,,female,59.5724047764,001,2016_04_27_1700,
關心小金的助教迷上了遊戲,助教喜歡打遊戲？,迷上了,助教,遊戲,關心,的,f,小金,12,1,41,0,1,1,8,space,0.533784402547,space,0.600662827801,space,0.533855848375,space,0.50033907163,space,0.517222786246,space,0.73383863822,space,0.984141789573,f,1,1.21712702515,SPR,huang,B,,female,59.5724047764,001,2016_04_27_1700,
攔住廣播員的大叔拿錯了行李,廣播員拿錯了行李？,拿錯了,大叔,行李,攔住,的,j,廣播員,13,1,46,0,2,2,13,space,0.483838638218,space,0.683828138446,space,0.550565093068,space,0.567227365094,space,0.4671443932,space,0.483961793456,space,0.483865479746,j,1,1.48391955752,SPR,huang,B,,female,59.5724047764,001,2016_04_27_1700,
尊敬在地人的導遊受到了表揚,在地人不喜歡導遊？,受到了,導遊,表揚,尊敬,的,j,在地人,13,1,44,0,3,3,11,space,0.550553645948,space,0.533910715612,space,0.433811954585,space,0.567397493001,space,0.5838252964,space,0.55055048812,space,0.583707667362,f,0,1.68395760934,SPR,huang,B,,female,59.5724047764,001,2016_04_27_1700,
大學部設置了許多不同的課程,大學部有很多課程?,教學,的,課程,大學部,許多不同,f,設置了,13,3,47,0,4,4,22,space,0.550514173116,space,0.700518830909,space,0.717333468068,space,0.850249941976,space,0.683893268619,space,0.850543619848,space,0.466916634956,f,1,1.05052206768,SPR,huang,B,,female,59.5724047764,001,2016_04_27_1700,
姐姐非常喜歡吃抹茶霜淇淋,姐姐討厭吃霜淇淋?,抹茶,吃,霜淇淋,姐姐,喜歡,j,非常,12,3,46,0,5,5,21,space,0.450421727741,space,0.550694958689,space,0.56726841684,space,0.434213788019,space,0.500486700024,space,0.517184892326,space,0.467245048922,j,1,1.00064301244,SPR,huang,B,,female,59.5724047764,001,2016_04_27_1700,
醫生厭煩的病人嘀咕了幾句,病人喜歡醫生？,嘀咕了,病人,幾句,醫生,的,j,厭煩,12,2,10,0,6,6,1,space,0.517212918037,space,0.6508158245,space,0.517231470269,space,0.550241810572,space,0.717221365225,space,0.633855927321,space,0.650539514674,j,1,2.6173428626,SPR,huang,B,,female,59.5724047764,001,2016_04_27_1700,
羨慕舞者的造型師登上了雜誌,在雜誌上能看到舞者？,登上了,造型師,雜誌,羨慕,的,j,舞者,13,1,48,0,7,7,15,space,0.517325810339,space,0.58386792706,space,0.533798612767,space,0.533797823311,space,0.583859637767,space,0.666912056109,space,1.0672873638,j,1,4.30070324798,SPR,huang,B,,female,59.5724047764,001,2016_04_27_1700,
老師今天分配了很多重要的任務,老師今天分配了任務?,的,很多重要,任務,老師,分配了,f,今天,11,3,45,0,8,8,20,space,0.550621539218,space,0.534107290316,space,0.450517646725,space,0.417150866746,space,0.500507225897,space,0.550515357299,space,0.58399068757,f,1,1.40027267833,SPR,huang,B,,female,59.5724047764,001,2016_04_27_1700,
群眾欺瞞的主席失去了權力,群眾得到了權力？,失去了,主席,權力,群眾,的,j,欺瞞,12,2,16,0,9,9,7,space,0.433832875186,space,0.600504936472,space,0.567172497857,space,0.633538565746,space,0.450499489221,space,0.750528541226,space,0.483809033594,j,1,1.8505554617,SPR,huang,B,,female,59.5724047764,001,2016_04_27_1700,
唆使兇嫌的槍手瞄準了目標,槍手無法找到目標？,瞄準了,槍手,目標,唆使,的,j,兇嫌,12,1,42,0,10,10,9,space,0.467227286148,space,0.500483936927,space,0.383866584983,space,0.450501857591,space,0.383910794557,space,0.517242522661,space,0.517197523632,j,1,1.38384645384,SPR,huang,B,,female,59.5724047764,001,2016_04_27_1700,
她的書架上擺放了一大堆的書,她的書架上沒有書?,的,一大堆,書,她的,擺放了,j,書架上,13,3,42,0,11,11,17,space,0.517229101899,space,0.533883479357,space,0.450733168389,space,0.467210707558,space,0.367181023988,space,0.46717241891,space,0.483728509016,j,1,1.08411423753,SPR,huang,B,,female,59.5724047764,001,2016_04_27_1700,
隊員維護的教練得罪了評審,教練得罪了評審？,得罪了,教練,評審,隊員,的,f,維護,12,2,15,0,12,12,6,space,0.667163892778,space,0.583925952125,space,0.483792849733,space,0.400534777935,space,0.433824585891,space,0.567170918943,space,0.583887268749,f,1,2.15060503957,SPR,huang,B,,female,59.5724047764,001,2016_04_27_1700,
飛上太空是許多人心中的夢想,很多人想飛上太空?,的,心中,夢想,飛上太空,許多人,f,是,13,3,43,0,13,13,18,space,0.583957135661,space,1.73398310878,space,1.23369495711,space,0.434009713475,space,0.417367177866,space,0.417339546884,space,0.500592092487,f,1,1.53354953919,SPR,huang,B,,female,59.5724047764,001,2016_04_27_1700,
哥哥嫉妒的富商觸犯了法律,哥哥違反了法律？,觸犯了,富商,法律,哥哥,的,j,嫉妒,12,2,14,0,14,14,5,space,0.483844953873,space,0.500710905711,space,0.38385119058,space,0.400470831946,space,0.400543461956,space,0.483957451444,space,0.550606144814,j,1,1.08370806209,SPR,huang,B,,female,59.5724047764,001,2016_04_27_1700,
小王欣賞的村長參加了競選,小王不想去競選？,參加了,村長,競選,小王,的,j,欣賞,12,2,12,0,15,15,3,space,0.467119525314,space,0.45050698906,space,0.417199813057,space,0.483912057687,space,0.617238654324,space,0.517182523956,space,0.517218049505,j,1,1.68386563763,SPR,huang,B,,female,59.5724047764,001,2016_04_27_1700,
今年新出了很多部好看的美劇,今年有好看的美劇?,的,好看,美劇,今年,很多部,f,新出了,13,3,41,0,16,16,16,space,0.400527672824,space,0.550694563959,space,0.483877321594,space,0.500632749505,space,0.567221049441,space,0.450561461568,space,0.483867848116,f,1,1.11722010209,SPR,huang,B,,female,59.5724047764,001,2016_04_27_1700,
小朋友需要父母的關愛和鼓勵,小朋友不需要父母的關愛?,關愛和,的,鼓勵,小朋友,父母,j,需要,13,3,48,0,17,17,23,space,0.583872663801,space,0.484121658428,space,0.450562251026,space,0.333850164287,space,0.483840611862,space,0.550571013993,space,0.467059131881,j,1,1.61687550427,SPR,huang,B,,female,59.5724047764,001,2016_04_27_1700,
佩服科學家的商人買下了產品,商人買下了產品？,買下了,商人,產品,佩服,的,f,科學家,13,1,45,0,18,18,12,space,0.500508804811,space,0.700521988736,space,0.483911268231,space,0.467180708207,space,0.467416361016,space,0.400530041194,space,0.433821822791,f,1,1.38358159113,SPR,huang,B,,female,59.5724047764,001,2016_04_27_1700,
總統拜訪的老人遭遇了車禍,老人遭遇了車禍？,遭遇了,老人,車禍,總統,的,f,拜訪,12,2,11,0,19,19,2,space,0.450515673083,space,0.467093078518,space,0.500733799954,space,0.533851111633,space,0.583916478643,space,0.467179524021,space,0.517182918684,f,1,1.45052514656,SPR,huang,B,,female,59.5724047764,001,2016_04_27_1700,
王總邀請的政客出席了宴會,政客參加了宴會？,出席了,政客,宴會,王總,的,f,邀請,12,2,13,0,20,20,4,space,0.483799954844,space,0.433928399441,space,0.733839427676,space,0.68384313812,space,0.717141630101,space,0.467197681524,space,0.433868006006,f,1,1.3672299703,SPR,huang,B,,female,59.5724047764,001,2016_04_27_1700,
學校的操場上聚集了很多學生,操場上沒有學生?,很多,聚集了,學生,學校,操場上,j,的,13,3,44,0,21,21,19,space,0.483842190773,space,0.667326915578,space,0.433562881013,space,0.383676720659,space,0.450431595949,space,0.484056528254,space,0.767233049181,j,1,1.08401239763,SPR,huang,B,,female,59.5724047764,001,2016_04_27_1700,
讚賞女婿的工程師籌辦了晚宴,工程師舉辦了一場晚宴？,籌辦了,工程師,晚宴,讚賞,的,f,女婿,13,1,47,0,22,22,14,space,0.367265101122,space,0.667278758721,space,0.483851664254,space,0.383846848568,space,0.500547882913,space,0.750632354777,space,0.483911662959,f,1,1.18373853512,SPR,huang,B,,female,59.5724047764,001,2016_04_27_1700,
害怕老闆的藥劑師調配了新藥,藥劑師調配了新藥？,調配了,藥劑師,新藥,害怕,的,f,老闆,13,1,43,0,23,23,10,space,0.467256496044,space,0.517201076187,space,0.484088895975,space,0.450514883625,space,0.55087574426,space,0.517164366453,space,0.466968344366,f,1,1.167350994,SPR,huang,B,,female,59.5724047764,001,2016_04_27_1700,
