Sentences,Question,word5,word4,word6,word1,word3,Ans,word2,lenth,Type,ID,practicetrials.thisRepN,practicetrials.thisTrialN,practicetrials.thisN,practicetrials.thisIndex,key_resp_12.keys,key_resp_12.rt,Atests1.keys,Atests1.rt,Atests2.keys,Atests2.rt,Atests3.keys,Atests3.rt,Atests4.keys,Atests4.rt,Atests5.keys,Atests5.rt,Atests6.keys,Atests6.rt,key_resp_8.keys,key_resp_8.corr,key_resp_8.rt,expName,participant,version,Grade,Gender,frameRate,session,date,
每年都會頒布新的法規制度,每年不會有新制度?,法規,的,制度,每年,新,j,都會頒布,12,3,34,0,0,0,17,space,1.2034098077,space,1.00044998851,space,0.801250731231,space,0.850541841432,space,0.750485711287,space,0.650708652964,space,0.850334609881,j,1,2.90041241052,SPR,lin,B,,female,59.9954530923,001,2016_04_28_1234,
留學的生活能夠磨礪人的意志,留學生活能鍛鍊人?,人的,磨礪,意志,留學的,能夠,f,生活,13,3,37,0,1,1,20,space,0.900290045229,space,0.550557788396,space,0.633860925129,space,0.584256007151,space,0.600328886343,space,0.567252362242,space,0.517069169553,f,1,2.90634673273,SPR,lin,B,,female,59.9954530923,001,2016_04_28_1234,
賄賂小陳的企劃員擅長宣傳,小陳不懂宣傳？,擅長,企劃員,宣傳,賄賂,的,j,小陳,12,1,36,0,2,2,11,space,0.618382504446,space,0.817012171006,space,1.217127747,space,0.683761888184,space,0.617936857929,space,0.550666732979,space,0.619362216279,j,1,3.16824281064,SPR,lin,B,,female,59.9954530923,001,2016_04_28_1234,
弟弟傷害的同學打了老師,同學推開了老師？,打了,同學,老師,弟弟,的,j,傷害,11,2,4,0,3,3,3,space,0.652877281816,space,0.666393121017,space,0.76746369895,space,0.717126168096,space,0.683772940534,space,2.52151063512,space,1.65062339198,f,0,3.37386585132,SPR,lin,B,,female,59.9954530923,001,2016_04_28_1234,
指使搶匪的殺手發生了不測,殺手遭遇不測了？,發生了,殺手,不測,指使,的,f,搶匪,12,1,35,0,4,4,10,space,1.50219468082,space,0.767000684456,space,0.850385134905,space,0.850278558679,space,0.600511250108,space,0.650096826474,space,0.650624970887,f,1,3.40525136595,SPR,lin,B,,female,59.9954530923,001,2016_04_28_1234,
招待船長的賓客接受了訪問,賓客接受了訪問？,接受了,賓客,訪問,招待,的,f,船長,12,1,37,0,5,5,12,space,1.08565570826,space,0.534181364317,space,1.30054338087,space,0.700544880827,space,0.63378513759,space,1.77088992728,space,1.317088748,f,1,2.98340134476,SPR,lin,B,,female,59.9954530923,001,2016_04_28_1234,
徐總賞識的詩人獲得了好評,徐總獲得了好評？,獲得了,詩人,好評,徐總,的,j,賞識,12,2,8,0,6,6,7,space,0.800548512314,space,0.750338872931,space,0.55021398138,space,0.500472093216,space,0.583686021699,space,0.602452121617,space,0.633676193,j,1,1.51706956427,SPR,lin,B,,female,59.9954530923,001,2016_04_28_1234,
手機是個既方便又重要的發明,手機是個不好的發明?,的,又重要,發明,手機,既方便,j,是個,13,3,36,0,7,7,19,space,0.683924910336,space,0.485569973607,space,0.716996697716,space,0.567035657248,space,0.417009881588,space,0.517180482497,space,0.467432673428,j,1,1.50230875686,SPR,lin,B,,female,59.9954530923,001,2016_04_28_1234,
小張崇拜的作家寫了首詩,作家會寫詩歌？,寫了,作家,詩歌,小張,的,f,崇拜,11,2,1,0,8,8,0,space,0.383503105317,space,0.583681284978,space,0.783688547948,space,0.49989460795,space,0.750601760956,space,0.617113063166,space,0.750292295172,f,1,2.78519916728,SPR,lin,B,,female,59.9954530923,001,2016_04_28_1234,
襲擊刺客的鐵匠鑄造了寶劍,鐵匠救了刺客？,鑄造了,鐵匠,寶劍,襲擊,的,f,刺客,12,1,39,0,9,9,14,space,0.567333675957,space,0.550341872855,space,0.633939870484,space,0.986897044997,space,0.800527591797,space,0.600593748004,space,0.533801637168,j,0,1.70036251706,SPR,lin,B,,female,59.9954530923,001,2016_04_28_1234,
小周羞辱的導演做了壞事,導演做了不好的事？,做了,導演,壞事,小周,的,f,羞辱,11,2,5,0,10,10,4,space,1.38377546678,space,0.600162706374,space,0.934157207041,space,0.850734468095,space,1.85075420443,space,1.85041829196,space,0.66724217829,f,1,2.91820235115,SPR,lin,B,,female,59.9954530923,001,2016_04_28_1234,
掩護戰士的村民躲進了樹洞,村民跑出了樹洞？,躲進了,村民,樹洞,掩護,的,j,戰士,12,1,40,0,11,11,15,space,0.684176746014,space,1.28362460221,space,0.58544137163,space,0.733724033886,space,0.684648444501,space,2.68455489426,space,0.733375490152,j,1,1.75077149347,SPR,lin,B,,female,59.9954530923,001,2016_04_28_1234,
善待動物們是對生命的尊重,應該善待動物?,的,生命,尊重,善待,是對,f,動物們,12,3,35,0,12,12,18,space,0.683748467472,space,0.636907821037,space,0.584064959396,space,0.739440466914,space,1.00048748756,space,0.683695179363,space,0.567137102025,f,1,1.25050584235,SPR,lin,B,,female,59.9954530923,001,2016_04_28_1234,
領隊欽佩的組長煮了美食,組長討厭領隊？,煮了,組長,美食,領隊,的,j,欽佩,11,2,6,0,13,13,5,space,0.536443148689,space,0.600446120192,space,0.651609024717,space,0.63370224497,space,0.850494079492,space,3.50157298616,space,0.653539238603,j,1,1.18557842076,SPR,lin,B,,female,59.9954530923,001,2016_04_28_1234,
小潘舉薦的水手開啟了旅程,水手開啟了旅程？,開啟了,水手,旅程,小潘,的,f,舉薦,12,2,7,0,14,14,6,space,0.717371688144,space,0.534632142284,space,1.31873712697,space,0.768420121905,space,0.533754269956,space,0.650452870021,space,0.700289887336,f,1,1.01708772171,SPR,lin,B,,female,59.9954530923,001,2016_04_28_1234,
工人表揚的廠長漲了薪水,廠長上調了薪水？,漲了,廠長,薪水,工人,的,f,表揚,11,2,3,0,15,15,2,space,1.05032845214,space,0.767256072671,space,1.61747423816,space,0.751547526288,space,3.68412266845,space,0.56844404235,space,1.76712186557,f,1,1.28404853876,SPR,lin,B,,female,59.9954530923,001,2016_04_28_1234,
房東厭惡的小孩吃了蘋果,房東扔掉蘋果？,吃了,小孩,蘋果,房東,的,j,厭惡,11,2,2,0,16,16,1,space,0.450560867263,space,0.700076340156,space,0.734039025847,space,2.03497318621,space,0.749340608938,space,0.567238152078,space,0.717019986594,j,1,1.51932937501,SPR,lin,B,,female,59.9954530923,001,2016_04_28_1234,
誣陷主人的管家怒斥了園丁,主人誇獎了園丁？,怒斥了,管家,園丁,誣陷,的,j,主人,12,1,34,0,17,17,9,space,0.450431002155,space,1.0328981076,space,0.834578696282,space,0.60378590336,space,1.46715873305,space,1.33348727677,space,1.55378744279,j,1,1.50395042547,SPR,lin,B,,female,59.9954530923,001,2016_04_28_1234,
愛慕局長的學生考上了大學,學生考上了大學？,考上了,學生,大學,愛慕,的,f,局長,12,1,33,0,18,18,8,space,0.650406292261,space,0.617157667293,space,1.05003477543,space,0.500382884962,space,0.55028029548,space,0.633970264444,space,0.500484724471,f,1,1.23466624668,SPR,lin,B,,female,59.9954530923,001,2016_04_28_1234,
阿姨親手製作了一個生日蛋糕,阿姨沒做蛋糕?,生日,一個,蛋糕,阿姨,製作了,j,親手,13,3,38,0,19,19,21,space,0.450524947126,space,0.422045016221,space,0.61712845751,space,1.90036425386,space,1.01855768419,space,0.71701959187,space,1.02134050789,j,1,1.18547776543,SPR,lin,B,,female,59.9954530923,001,2016_04_28_1234,
救治嬸嬸的鄰居染上了毒癮,嬸嬸染上了毒癮？,染上了,鄰居,毒癮,救治,的,j,嬸嬸,12,1,38,0,20,20,13,space,0.520654078042,space,0.767069366913,space,0.750353872547,space,0.467032420489,space,0.451978331079,space,0.533708086925,space,0.435031921555,j,1,1.03348901357,SPR,lin,B,,female,59.9954530923,001,2016_04_28_1234,
爺爺一句話就把大家逗開心了,爺爺把大家逗開心了?,逗,大家,開心了,爺爺,就把,f,一句話,12,3,33,0,21,21,16,space,0.100489145407,space,0.583717599842,space,0.535639090263,space,0.716989592634,space,0.51708772171,space,0.43338196367,space,0.383349951331,f,1,1.06727565112,SPR,lin,B,,female,59.9954530923,001,2016_04_28_1234,
聽說吃黑巧克力可以提高智商,巧克力不能提高智商?,提高,可以,智商,聽說,黑巧克力,j,吃,13,3,40,0,22,22,23,space,0.833306886641,space,0.519435951239,space,0.500432620538,space,0.58768855111,space,0.450423897073,space,0.433977606361,space,0.766844767382,j,1,1.0675172239,SPR,lin,B,,female,59.9954530923,001,2016_04_28_1234,
和朋友們一起喝下午茶很開心,喝下午茶很開心?,下午茶,喝,很開心,和,一起,f,朋友們,13,3,39,0,23,23,22,space,0.43589795208,space,0.334256993967,space,0.767050420029,space,0.483396213309,space,0.533497302833,space,0.566984737496,space,0.416975540364,f,1,1.13363869396,SPR,lin,B,,female,59.9954530923,001,2016_04_28_1234,
大學部設置了許多不同的課程,大學部有很多課程?,教學,的,課程,大學部,許多不同,f,設置了,13,3,47,0,0,0,22,None,,space,2.15042879169,space,0.967153996331,space,2.61820566685,space,1.08372983637,space,0.383514157667,space,0.401563433777,f,1,1.76726554612,SPR,lin,B,,female,59.9954530923,001,2016_04_28_1234,
關心小金的助教迷上了遊戲,助教喜歡打遊戲？,迷上了,助教,遊戲,關心,的,f,小金,12,1,41,0,1,1,8,space,0.483832386384,space,0.416961724924,space,0.933665377488,space,0.533808347525,space,0.867106944901,space,0.585433082364,space,1.28554810575,f,1,1.38537095237,SPR,lin,B,,female,59.9954530923,001,2016_04_28_1234,
羨慕舞者的造型師登上了雜誌,在雜誌上能看到舞者？,登上了,造型師,雜誌,羨慕,的,j,舞者,13,1,48,0,2,2,15,space,0.800910476759,space,1.1681433395,space,0.733692850474,space,0.502260600191,space,1.33371108685,space,0.533762559218,space,0.668690430797,j,1,1.58362365487,SPR,lin,B,,female,59.9954530923,001,2016_04_28_1234,
她的書架上擺放了一大堆的書,她的書架上沒有書?,的,一大堆,書,她的,擺放了,j,書架上,13,3,42,0,3,3,17,space,0.734151128247,space,0.8500871162,space,0.533771243208,space,0.633324886181,space,0.700897371833,space,0.683929647061,space,0.417320136825,j,1,1.18301427569,SPR,lin,B,,female,59.9954530923,001,2016_04_28_1234,
王總邀請的政客出席了宴會,政客參加了宴會？,出席了,政客,宴會,王總,的,f,邀請,12,2,13,0,4,4,4,space,0.983790545346,space,0.58379654519,space,0.601558854945,space,0.667011263133,space,1.03531146705,space,0.500346570101,space,0.500322097043,j,0,3.48565168205,SPR,lin,B,,female,59.9954530923,001,2016_04_28_1234,
學校的操場上聚集了很多學生,操場上沒有學生?,很多,聚集了,學生,學校,操場上,j,的,13,3,44,0,5,5,19,space,0.850571840667,space,0.966986632182,space,0.700441462413,space,0.768481304556,space,0.867244704543,space,0.86664945658,space,0.534155707079,j,1,0.900377279842,SPR,lin,B,,female,59.9954530923,001,2016_04_28_1234,
讚賞女婿的工程師籌辦了晚宴,工程師舉辦了一場晚宴？,籌辦了,工程師,晚宴,讚賞,的,f,女婿,13,1,47,0,6,6,14,space,0.817077695647,space,1.00031222887,space,0.90045583047,space,0.650385766468,space,1.283721705,space,1.03497279148,space,0.667688614263,f,1,1.4671180762,SPR,lin,B,,female,59.9954530923,001,2016_04_28_1234,
總統拜訪的老人遭遇了車禍,老人遭遇了車禍？,遭遇了,老人,車禍,總統,的,f,拜訪,12,2,11,0,7,7,2,space,0.76722488926,space,0.600416120957,space,1.36723404692,space,0.850165272099,space,0.733979027376,space,0.617050301611,space,0.550294110912,f,1,1.30058916917,SPR,lin,B,,female,59.9954530923,001,2016_04_28_1234,
尊敬在地人的導遊受到了表揚,在地人不喜歡導遊？,受到了,導遊,表揚,尊敬,的,j,在地人,13,1,44,0,8,8,11,space,0.917073827328,space,1.26605689276,space,1.42036071711,space,0.750169140421,space,0.566936186104,space,1.31968920793,space,0.500442093977,j,1,1.40426849631,SPR,lin,B,,female,59.9954530923,001,2016_04_28_1234,
群眾欺瞞的主席失去了權力,群眾得到了權力？,失去了,主席,權力,群眾,的,j,欺瞞,12,2,16,0,9,9,7,space,0.667094945205,space,0.85043802829,space,0.667824794997,space,0.617122141881,space,0.753443004218,space,0.566982369131,space,0.752687497188,j,1,1.7690157646,SPR,lin,B,,female,59.9954530923,001,2016_04_28_1234,
飛上太空是許多人心中的夢想,很多人想飛上太空?,的,心中,夢想,飛上太空,許多人,f,是,13,3,43,0,10,10,18,space,0.634049604523,space,0.850612102793,space,0.472609120243,space,0.383706389603,space,0.450317320847,space,0.387916940013,space,0.433817347293,j,0,1.25042294973,SPR,lin,B,,female,59.9954530923,001,2016_04_28_1234,
哥哥嫉妒的富商觸犯了法律,哥哥違反了法律？,觸犯了,富商,法律,哥哥,的,j,嫉妒,12,2,14,0,11,11,5,space,0.467099129313,space,0.550455554163,space,0.552123669473,space,0.567178943063,space,1.20044896222,space,0.533737296704,space,0.567152496373,j,1,1.4354602001,SPR,lin,B,,female,59.9954530923,001,2016_04_28_1234,
醫生厭煩的病人嘀咕了幾句,病人喜歡醫生？,嘀咕了,病人,幾句,醫生,的,j,厭煩,12,2,10,0,12,12,1,space,0.467076629888,space,0.550773309209,space,0.667094945209,space,0.684570288602,space,0.567042367602,space,1.25187317587,space,0.466992158359,j,1,1.71850929068,SPR,lin,B,,female,59.9954530923,001,2016_04_28_1234,
小朋友需要父母的關愛和鼓勵,小朋友不需要父母的關愛?,關愛和,的,鼓勵,小朋友,父母,j,需要,13,3,48,0,13,13,23,space,0.51724363878,space,0.400276624518,space,0.483767256468,space,0.433788532238,space,0.432745664126,space,0.500647746623,space,0.333681482341,j,1,1.70641841511,SPR,lin,B,,female,59.9954530923,001,2016_04_28_1234,
小王欣賞的村長參加了競選,小王不想去競選？,參加了,村長,競選,小王,的,j,欣賞,12,2,12,0,14,14,3,space,0.483759756662,space,0.467285835071,space,0.467281493078,space,0.467435436516,space,0.450541130922,space,0.467085313874,space,0.583796939922,j,1,1.6854418453,SPR,lin,B,,female,59.9954530923,001,2016_04_28_1234,
佩服科學家的商人買下了產品,商人買下了產品？,買下了,商人,產品,佩服,的,f,科學家,13,1,45,0,15,15,12,space,0.43383037328,space,0.350490921679,space,1.10897142889,space,0.701013026774,space,0.434167469935,space,0.500596432146,space,0.383734415198,f,1,1.06813812911,SPR,lin,B,,female,59.9954530923,001,2016_04_28_1234,
隊員維護的教練得罪了評審,教練得罪了評審？,得罪了,教練,評審,隊員,的,f,維護,12,2,15,0,16,16,6,space,0.40048859279,space,0.900887266824,space,0.41724671765,space,1.05151815862,space,0.733682192847,space,0.617016355111,space,0.718559420984,j,0,1.36873558754,SPR,lin,B,,female,59.9954530923,001,2016_04_28_1234,
攔住廣播員的大叔拿錯了行李,廣播員拿錯了行李？,拿錯了,大叔,行李,攔住,的,j,廣播員,13,1,46,0,17,17,13,space,0.850470790614,space,0.500909055743,space,1.6007220342,space,0.833754112067,space,0.617011618389,space,0.651555736604,space,0.838488464899,j,1,2.13436854375,SPR,lin,B,,female,59.9954530923,001,2016_04_28_1234,
張三認識的司機違反了規定,司機不遵守規定？,違反了,司機,規定,張三,的,f,認識,12,2,9,0,18,18,0,space,0.500529723322,space,1.13487221511,space,0.550297268728,space,0.533768085392,space,0.633823820812,space,0.533767690667,space,0.707046425396,f,1,1.53793640004,SPR,lin,B,,female,59.9954530923,001,2016_04_28_1234,
姐姐非常喜歡吃抹茶霜淇淋,姐姐討厭吃霜淇淋?,抹茶,吃,霜淇淋,姐姐,喜歡,j,非常,12,3,46,0,19,19,21,space,0.467164653954,space,0.549820438795,space,0.558457060437,space,0.583507210475,space,0.486000225785,space,0.450037064842,space,0.533619668127,j,1,1.88427084888,SPR,lin,B,,female,59.9954530923,001,2016_04_28_1234,
今年新出了很多部好看的美劇,今年有好看的美劇?,的,好看,美劇,今年,很多部,f,新出了,13,3,41,0,20,20,16,space,0.450437712512,space,0.467333991739,space,0.800364569641,space,0.516877332342,space,0.683867674958,space,0.383752177902,space,0.500388016411,f,1,2.01723337588,SPR,lin,B,,female,59.9954530923,001,2016_04_28_1234,
老師今天分配了很多重要的任務,老師今天分配了任務?,的,很多重要,任務,老師,分配了,f,今天,11,3,45,0,21,21,20,space,0.500308676332,space,0.450403766012,space,0.483702126552,space,0.483771598461,space,0.535193838474,space,0.483856464718,space,0.383562314331,f,1,2.53362756267,SPR,lin,B,,female,59.9954530923,001,2016_04_28_1234,
唆使兇嫌的槍手瞄準了目標,槍手無法找到目標？,瞄準了,槍手,目標,唆使,的,j,兇嫌,12,1,42,0,22,22,9,space,0.834917766573,space,1.47123547109,space,0.43371392888,space,0.533822952413,space,0.517035223049,space,0.534944765885,space,1.00075511231,j,1,1.41789367482,SPR,lin,B,,female,59.9954530923,001,2016_04_28_1234,
害怕老闆的藥劑師調配了新藥,藥劑師調配了新藥？,調配了,藥劑師,新藥,害怕,的,f,老闆,13,1,43,0,23,23,10,space,0.41711369473,space,0.718580341505,space,0.500356832999,space,0.733845215003,space,0.650454843653,space,1.91996796398,space,0.604728905604,f,1,1.58389049016,SPR,lin,B,,female,59.9954530923,001,2016_04_28_1234,
忽視小白的企業家投資了廣告,企業家投資了廣告？,投資了,企業家,廣告,忽視,的,f,小白,13,1,55,0,0,0,14,space,0.483843833459,space,1.55053844678,space,0.567130391672,space,0.617096089914,space,1.13638599225,space,1.87227154991,space,0.450494158438,f,1,1.26834946582,SPR,lin,B,,female,59.9954530923,001,2016_04_28_1234,
表姐熟識的院士解釋了理論,表姐解釋了理論？,解釋了,院士,理論,表姐,的,j,熟識,12,2,24,0,1,1,7,space,0.717016434057,space,0.950507579149,space,1.6079467182,space,0.433531959843,space,1.06701157891,space,0.834159496455,space,0.55072791563,j,1,1.40079766385,SPR,lin,B,,female,59.9954530923,001,2016_04_28_1234,
每週都有寫不完的作業和報告,每週都有作業?,作業和,的,報告,每週,寫不完,f,都有,13,3,53,0,2,2,20,space,0.417172509016,space,0.617052275244,space,0.683744125479,space,0.700745796752,space,0.483622786473,space,0.550489895391,space,0.466968080025,f,1,1.8510545915,SPR,lin,B,,female,59.9954530923,001,2016_04_28_1234,
老婆迷戀的編輯出版了新書,編輯出版了新書？,出版了,編輯,新書,老婆,的,f,迷戀,12,2,17,0,3,3,0,space,0.450424686529,space,0.733743375498,space,1.00058735343,space,0.483693047838,space,0.567479330133,space,0.551101721878,space,0.483710810542,f,1,0.867306676646,SPR,lin,B,,female,59.9954530923,001,2016_04_28_1234,
表哥結識的中醫師開了偏方,中醫生開錯了偏方？,開了,中醫師,偏方,表哥,的,j,結識,12,2,20,0,4,4,3,space,0.434268914712,space,0.567065261755,space,0.350365793292,space,0.866958132912,space,1.40335588802,space,0.500384069142,space,0.401360938948,j,1,1.25038979268,SPR,lin,B,,female,59.9954530923,001,2016_04_28_1234,
每個人的相處方式都不一樣,相處方式都一樣的?,都,方式,不一樣,每個人,相處,j,的,12,3,50,0,5,5,17,space,0.433773927351,space,0.400582143036,space,0.500318544502,space,0.417061985521,space,0.467062814449,space,0.317089142725,space,0.383864280306,j,1,1.28448944856,SPR,lin,B,,female,59.9954530923,001,2016_04_28_1234,
週六有場精彩的戲劇要公演了,週六沒有戲劇公演?,戲劇,的,要公演了,週六,精彩,j,有場,13,3,54,0,6,6,21,space,0.350451449001,space,0.383793624216,space,0.350294347747,space,1.11708266921,space,0.305146289687,space,0.78371420519,space,0.8838405967,j,1,1.10031704454,SPR,lin,B,,female,59.9954530923,001,2016_04_28_1234,
表弟砍傷的疑犯發現了秘密,疑犯發現了秘密？,發現了,疑犯,秘密,表弟,的,f,砍傷,12,2,21,0,7,7,4,space,0.350408029059,space,0.368261915421,space,0.516966935316,space,0.349148455949,space,0.733898108389,space,0.567034473068,space,0.583711284213,f,1,1.4671918901,SPR,lin,B,,female,59.9954530923,001,2016_04_28_1234,
驅趕交警的行政人員亂扔垃圾,行政人員亂扔垃圾？,亂扔,行政人員,垃圾,驅趕,的,f,交警,13,1,53,0,8,8,12,space,0.400754638631,space,0.333650298926,space,0.767090682159,space,0.450432581063,space,0.667238231024,space,0.500023683606,space,0.349980934698,f,1,0.78387643789,SPR,lin,B,,female,59.9954530923,001,2016_04_28_1234,
農夫辱罵的木匠造出了新房,木匠造出了新房？,造出了,木匠,新房,農夫,的,f,辱罵,12,2,19,0,9,9,2,space,0.367006684304,space,0.334940265999,space,0.483697389831,space,0.416835412361,space,0.500591695421,space,0.466886371585,space,0.83510960378,f,1,0.816676258528,SPR,lin,B,,female,59.9954530923,001,2016_04_28_1234,
親近大自然的最好方式是旅遊,旅遊能夠親近大自然?,是,最好方式,旅遊,親近,的,f,大自然,13,3,55,0,10,10,22,space,0.350359082939,space,0.350330662612,space,0.417118431451,space,0.350515394737,space,0.61702938109,space,0.500427489085,space,0.383825202356,f,1,1.68233968764,SPR,lin,B,,female,59.9954530923,001,2016_04_28_1234,
桌子上擺滿了一大堆舊的文件,桌上沒有文件?,的,舊,文件,桌子上,一大堆,j,擺滿了,12,3,52,0,11,11,19,space,0.350397371432,space,0.450555341089,space,1.11713043115,space,0.43368985055,space,0.36715865411,space,0.383859543588,space,0.333719770839,j,1,0.718305216946,SPR,lin,B,,female,59.9954530923,001,2016_04_28_1234,
雇主同情的技工拿到了專利,雇主毆打了技工？,拿到了,技工,專利,雇主,的,j,同情,12,2,18,0,12,12,1,space,0.400382411292,space,0.316945856906,space,0.633755533083,space,0.583735757271,space,0.950521394585,space,0.4675325393,space,0.650364451223,j,1,1.21716208823,SPR,lin,B,,female,59.9954530923,001,2016_04_28_1234,
資助航海家的演員擔任了主角,演員當上了主角？,擔任了,演員,主角,資助,的,f,航海家,13,1,51,0,13,13,10,space,0.317200850401,space,0.633838425703,space,1.18372478387,space,0.535253442216,space,0.600532170625,space,0.469651037856,space,0.3668105051,f,1,1.21746010694,SPR,lin,B,,female,59.9954530923,001,2016_04_28_1234,
博物館裡有很多珍貴的收藏品,博物館沒有收藏品?,的,珍貴,收藏品,博物館裡,很多,j,有,13,3,56,0,14,14,23,space,0.333733981002,space,0.517182456133,space,0.500411305293,space,0.349997513222,space,0.300647983458,space,0.316997960843,space,0.475682068118,j,1,0.650619839442,SPR,lin,B,,female,59.9954530923,001,2016_04_28_1234,
照顧小崔的飛行員擊落了敵機,飛行員打落了敵機？,擊落了,飛行員,敵機,照顧,的,f,小崔,13,1,49,0,15,15,8,space,0.385312927541,space,0.617556736051,space,0.602584355085,space,0.683703468621,space,0.417222639317,space,0.483668969504,space,0.467024525951,f,1,1.26590965968,SPR,lin,B,,female,59.9954530923,001,2016_04_28_1234,
音樂可以讓人身心得到放鬆,音樂會讓人放鬆?,得到,身心,放鬆,音樂,讓人,f,可以,12,3,51,0,16,16,18,space,0.367072208945,space,0.333807794908,space,0.367235625828,space,0.383927831313,space,0.416982250717,space,0.285802704511,space,0.333902529328,f,1,1.05590594135,SPR,lin,B,,female,59.9954530923,001,2016_04_28_1234,
小郭取笑的廚師偷聽了對話,小郭表揚了廚師？,偷聽了,廚師,對話,小郭,的,j,取笑,12,2,22,0,17,17,5,space,0.316978224502,space,0.550437396731,space,0.467023736499,space,0.367028394274,space,0.600453225274,space,1.10040704224,space,1.27306131923,j,1,1.35090577951,SPR,lin,B,,female,59.9954530923,001,2016_04_28_1234,
袒護隊長的消防員聲援了遊行,隊長聲援了遊行？,聲援了,消防員,遊行,袒護,的,j,隊長,13,1,52,0,18,18,11,space,0.335059868208,space,0.550603181971,space,0.651985988778,space,0.417561314884,space,0.550324110151,space,0.70038580594,space,0.635109840616,f,0,2.28404656513,SPR,lin,B,,female,59.9954530923,001,2016_04_28_1234,
校園門口的那棵樹長滿了新葉,樹長滿了新葉?,長滿了,樹,新葉,校園門口,那棵,f,的,13,3,49,0,19,19,16,space,0.433689061098,space,0.866999973947,space,0.533754269956,space,0.618073433387,space,0.533942949351,space,1.05343929379,space,0.367427068308,f,1,2.05037581935,SPR,lin,B,,female,59.9954530923,001,2016_04_28_1234,
督促小謝的技術員趕上了進度,技術員落下了進度？,趕上了,技術員,進度,督促,的,j,小謝,13,1,50,0,20,20,9,space,0.700424489165,space,0.600330465248,space,0.64944000114,space,0.650722073671,space,1.82017195877,space,0.483707652726,space,0.800488908575,j,1,0.949876016322,SPR,lin,B,,female,59.9954530923,001,2016_04_28_1234,
拉攏貴族的青年當上了執行長,貴族當上了執行長？,當上了,青年,執行長,拉攏,的,j,貴族,13,1,54,0,21,21,13,space,0.450143641068,space,0.517929673901,space,0.667049946358,space,0.517108642227,space,1.48403803903,space,0.568330361039,space,0.917703416519,f,0,1.4170750115,SPR,lin,B,,female,59.9954530923,001,2016_04_28_1234,
上司嘲笑的會計偽造了帳目,會計偽造了帳目？,偽造了,會計,帳目,上司,的,f,嘲笑,12,2,23,0,22,22,6,space,0.550588971808,space,0.550615813227,space,1.23486242588,space,0.950473237921,space,1.06676487469,space,1.01711022114,space,3.68413845752,f,1,1.25072531043,SPR,lin,B,,female,59.9954530923,001,2016_04_28_1234,
輕視政府的逃亡者認清了事實,政府認清了事實？,認清了,逃亡者,事實,輕視,的,j,政府,13,1,56,0,23,23,15,space,0.517148509629,space,0.683603997477,space,0.6504157657,space,0.617173061633,space,1.15080180848,space,0.551329479222,space,0.683648996328,j,1,1.05021437611,SPR,lin,B,,female,59.9954530923,001,2016_04_28_1234,
捧紅大姑姑的明星拍攝了新片,大姑姑拍攝了新片？,拍攝了,明星,新片,捧紅,的,j,大姑姑,13,1,60,0,0,0,11,space,0.867189837521,space,0.96705018319,space,0.417701442886,space,1.00036038554,space,0.568810348788,space,1.0171141684,space,2.00256296089,f,0,0.917225402405,SPR,lin,B,,female,59.9954530923,001,2016_04_28_1234,
責備治療師的婦女察覺了動靜,治療師察覺了動靜？,察覺了,婦女,動靜,責備,的,j,治療師,13,1,62,0,1,1,13,space,0.466920318089,space,0.483657522425,space,1.80034759639,space,0.567091313722,space,0.466834267652,space,0.600417699865,space,0.533714402551,j,1,1.28387525371,SPR,lin,B,,female,59.9954530923,001,2016_04_28_1234,
媽媽的拿手菜是糖醋排骨,媽媽會煮糖醋排骨?,糖醋,是,排骨,媽媽,拿手菜,f,的,11,3,59,0,2,2,18,space,0.367081287663,space,0.533751112143,space,0.350425791763,space,0.473658698709,space,0.483455027595,space,0.450399029287,space,0.350413555232,f,1,1.26707489309,SPR,lin,B,,female,59.9954530923,001,2016_04_28_1234,
隔壁的大伯擅長修理各種電器,大伯不會修理電器?,各種,修理,電器,隔壁的,擅長,j,大伯,13,3,64,0,3,3,23,space,0.467108602752,space,0.500521434056,space,0.450297979234,space,0.384255059806,space,0.367033525723,space,0.366994842501,space,0.333784506027,j,1,0.833881214083,SPR,lin,B,,female,59.9954530923,001,2016_04_28_1234,
朋友們推薦了許多好聽的歌曲,朋友們推薦了歌曲?,的,好聽,歌曲,朋友們,許多,f,推薦了,13,3,57,0,4,4,16,space,0.533756243589,space,0.400202810612,space,0.533715586735,space,0.467111760569,space,0.483681600759,space,0.501790085884,space,0.434271677801,f,1,1.00057195908,SPR,lin,B,,female,59.9954530923,001,2016_04_28_1234,
我今天學會了一個新的技能,我今天沒學新技能?,新的,一個,技能,我,學會了,j,今天,12,3,60,0,5,5,19,space,0.400534381097,space,0.350365793292,space,0.433687482186,space,0.400551749073,space,0.416989750523,space,0.400231230939,space,0.433808268579,j,1,0.766917002384,SPR,lin,B,,female,59.9954530923,001,2016_04_28_1234,
小吳批評的評論家說了粗話,評論家說了粗話？,說了,評論家,粗話,小吳,的,f,批評,12,2,29,0,6,6,4,space,0.400457409378,space,0.883434028132,space,0.500609063398,space,0.667162048758,space,1.28367512724,space,0.450058380091,space,0.383785334954,f,1,0.885644498019,SPR,lin,B,,female,59.9954530923,001,2016_04_28_1234,
叔叔協助的警察破了大案件,警察偵破了大案件？,破了,警察,大案件,叔叔,的,f,協助,12,2,31,0,7,7,6,space,0.31884015066,space,0.533852951648,space,0.484029355041,space,0.550378977168,space,0.433768795901,space,0.451394924919,space,0.567017105092,f,1,0.900590827023,SPR,lin,B,,female,59.9954530923,001,2016_04_28_1234,
詆毀代理商的律師吃上了官司,律師碰上了官司？,吃上了,律師,官司,詆毀,的,f,代理商,13,1,61,0,8,8,12,space,0.383826386536,space,0.850563551405,space,0.0334069104028,space,1.13395368592,space,0.467140180896,space,0.885492922946,space,1.55549029406,f,1,1.36697944815,SPR,lin,B,,female,59.9954530923,001,2016_04_28_1234,
撞見業務員的藝人衝進了現場,藝人闖進了現場？,衝進了,藝人,現場,撞見,的,f,業務員,13,1,63,0,9,9,14,space,0.416841333259,space,0.383666916925,space,2.1004816456,space,0.450414423631,space,0.720988964229,space,1.36837441255,space,0.600399147705,f,1,0.753018672945,SPR,lin,B,,female,59.9954530923,001,2016_04_28_1234,
責罵小明的管理員掄起了拳頭,管理員握起了拳頭？,掄起了,管理員,拳頭,責罵,的,f,小明,13,1,59,0,10,10,10,space,0.383841386156,space,0.433675640383,space,0.634459725632,space,0.400374516757,space,0.467138207259,space,1.33627128465,space,0.43377274317,f,1,1.03420899519,SPR,lin,B,,female,59.9954530923,001,2016_04_28_1234,
討好主播的發言人處理了糾紛,發言人擺平了糾紛？,處理了,發言人,糾紛,討好,的,f,主播,13,1,57,0,11,11,8,space,0.350443159739,space,0.617346346684,space,0.400647667677,space,0.417484343161,space,0.434926134778,space,0.417138167788,space,0.433705639622,f,1,1.93365866713,SPR,lin,B,,female,59.9954530923,001,2016_04_28_1234,
童年的回憶總是美好而快樂的,童年的回憶很痛苦?,而,美好,快樂的,童年的,總是,j,回憶,13,3,62,0,12,12,21,space,0.317209139663,space,0.467272019632,space,0.467637931346,space,1.31711558942,space,0.433846557073,space,0.300427331196,space,0.300335754586,j,1,0.883828360169,SPR,lin,B,,female,59.9954530923,001,2016_04_28_1234,
駕駛員碰見的盜賊撕了名畫,駕駛員毀壞了名畫？,撕了,盜賊,名畫,駕駛員,的,j,碰見,12,2,32,0,13,13,7,space,0.383746651729,space,0.450398239831,space,0.500393542588,space,0.3837284943,space,1.40033662298,space,0.750372819432,space,0.450277058717,f,0,1.33375450679,SPR,lin,B,,female,59.9954530923,001,2016_04_28_1234,
支持小林的研究員分析了案例,小林不懂分析案例？,分析了,研究員,案例,支持,的,j,小林,13,1,64,0,14,14,15,space,0.550635549567,space,1.80238162342,space,0.700265414278,space,0.435282178325,space,0.617170693273,space,0.55024121753,space,0.583755888336,j,1,2.98408619569,SPR,lin,B,,female,59.9954530923,001,2016_04_28_1234,
熱鬧的夜市有很多美味的食物,夜市裡有很多美食?,的,美味,食物,熱鬧的,有很多,f,夜市,13,3,61,0,15,15,20,space,0.43324894075,space,0.98372659961,space,0.449948646048,space,0.450535604748,space,0.367132207411,space,0.351772994214,space,0.333710692121,f,1,0.984079485341,SPR,lin,B,,female,59.9954530923,001,2016_04_28_1234,
孩子親近的阿姨迷失了方向,阿姨迷路了？,迷失了,阿姨,方向,孩子,的,f,親近,12,2,27,0,16,16,2,space,0.667007710592,space,0.467037551934,space,0.433725770683,space,0.483788966441,space,0.416772256078,space,0.550408581676,space,0.466728875606,f,1,1.08361733924,SPR,lin,B,,female,59.9954530923,001,2016_04_28_1234,
侮辱空服員的旅客拿出了凶器,空服員把凶器藏了起來？,拿出了,旅客,凶器,侮辱,的,j,空服員,13,1,58,0,17,17,9,space,0.400391490006,space,0.516936936081,space,0.483709231634,space,0.667044814909,space,0.417297242675,space,0.3838405967,space,0.35027461141,j,1,1.3671629961,SPR,lin,B,,female,59.9954530923,001,2016_04_28_1234,
市民信任的委員爭到了選票,委員放棄了選票？,爭到了,委員,選票,市民,的,j,信任,12,2,28,0,18,18,3,space,0.383805466019,space,0.583360372118,space,0.617098853003,space,0.600430725844,space,0.466898608116,space,0.367208784406,space,0.367057209329,j,1,0.867342202055,SPR,lin,B,,female,59.9954530923,001,2016_04_28_1234,
小明昨天吃了一碗美味的小米粥,小明昨天沒吃小米粥?,的,美味,小米粥,小明,吃了一碗,j,昨天,12,3,58,0,19,19,17,space,0.374163870027,space,0.401412648152,space,0.45042823907,space,0.468254099829,space,0.517250743862,space,0.400324781185,space,0.500183153217,j,1,0.917801703483,SPR,lin,B,,female,59.9954530923,001,2016_04_28_1234,
每個人都應該要遵守交通規則,交通規則人人遵守?,交通,遵守,規則,每個人,要,f,都應該,13,3,63,0,20,20,22,space,0.433656298774,space,0.48382212349,space,0.500526960233,space,0.417019749759,space,0.450252585659,space,0.433647220056,space,0.35184443976,f,1,1.13640138659,SPR,lin,B,,female,59.9954530923,001,2016_04_28_1234,
顧客熟悉的職工推薦了商品,職工推薦了商品？,推薦了,職工,商品,顧客,的,f,熟悉,12,2,25,0,21,21,0,space,0.367062735506,space,0.436452543185,space,0.433685113829,space,0.450073379707,space,0.384031249727,space,1.56730446617,space,0.45042073926,f,1,1.20150722469,SPR,lin,B,,female,59.9954530923,001,2016_04_28_1234,
犯人檢舉的同伴知道了敵情,犯人知道了敵情？,知道了,同伴,敵情,犯人,的,j,檢舉,12,2,26,0,22,22,1,space,0.383740336103,space,0.483736862509,space,0.767779480368,space,0.952962384905,space,1.10035770139,space,0.50054314403,space,0.505559726502,j,1,1.16830438802,SPR,lin,B,,female,59.9954530923,001,2016_04_28_1234,
上尉惹怒的服務員扔了盤子,盤子是上尉扔的？,扔了,服務員,盤子,上尉,的,j,惹怒,12,2,30,0,23,23,5,space,0.395997786371,space,0.583995487483,space,0.683811623756,space,0.533730981078,space,2.28486483371,space,0.416306083764,space,0.383883621918,j,1,1.71818127274,SPR,lin,B,,female,59.9954530923,001,2016_04_28_1234,
