Sentences,Question,word5,word4,word6,word1,word3,Ans,word2,lenth,Type,ID,practicetrials.thisRepN,practicetrials.thisTrialN,practicetrials.thisN,practicetrials.thisIndex,key_resp_12.keys,key_resp_12.rt,Atests1.keys,Atests1.rt,Atests2.keys,Atests2.rt,Atests3.keys,Atests3.rt,Atests4.keys,Atests4.rt,Atests5.keys,Atests5.rt,Atests6.keys,Atests6.rt,key_resp_8.keys,key_resp_8.corr,key_resp_8.rt,expName,participant,version,Grade,Gender,frameRate,session,date,
討好主播的發言人處理了糾紛,發言人擺平了糾紛？,處理了,發言人,糾紛,討好,的,f,主播,13,1,57,0,0,0,8,space,0.546061850531,space,1.07803156078,space,0.514409105868,space,0.391454876022,space,0.613319344215,space,0.684711995513,space,0.824601582543,j,0,8.47428473536,SPR,zhang,B,,female,59.1605795117,001,2016_04_28_1703,
每個人都應該要遵守交通規則,交通規則人人遵守?,交通,遵守,規則,每個人,要,f,都應該,13,3,63,0,1,1,22,space,0.359390826081,space,0.631080075058,space,0.616643733039,space,0.497441775828,space,0.509098846691,space,0.492828209382,space,0.805455360744,f,1,1.69409465075,SPR,zhang,B,,female,59.1605795117,001,2016_04_28_1703,
顧客熟悉的職工推薦了商品,職工推薦了商品？,推薦了,職工,商品,顧客,的,f,熟悉,12,2,25,0,2,2,0,space,0.393940075737,space,0.392548269163,space,0.375344497785,space,0.393795605742,space,0.463812634262,space,2.08558663107,space,0.525337511121,f,1,1.65761163465,SPR,zhang,B,,female,59.1605795117,001,2016_04_28_1703,
支持小林的研究員分析了案例,小林不懂分析案例？,分析了,研究員,案例,支持,的,j,小林,13,1,64,0,3,3,15,space,0.358943995372,space,0.493210699628,space,0.508306630065,space,0.358621503605,space,1.33334793823,space,0.545698307178,space,0.936199128599,j,1,2.01459344327,SPR,zhang,B,,female,59.1605795117,001,2016_04_28_1703,
捧紅大姑姑的明星拍攝了新片,大姑姑拍攝了新片？,拍攝了,明星,新片,捧紅,的,j,大姑姑,13,1,60,0,4,4,11,space,0.391769078531,space,0.665358147438,space,0.495514719754,space,0.427973417522,space,1.43350906569,space,0.906142264263,space,0.755506241025,j,1,2.4941675173,SPR,zhang,B,,female,59.1605795117,001,2016_04_28_1703,
小明昨天吃了一碗美味的小米粥,小明昨天沒吃小米粥?,的,美味,小米粥,小明,吃了一碗,j,昨天,12,3,58,0,5,5,17,space,0.373986637707,space,0.337127052284,space,0.49400765296,space,0.630601271499,space,0.5810831934,space,0.476493626353,space,0.9233085366,j,1,3.57270314416,SPR,zhang,B,,female,59.1605795117,001,2016_04_28_1703,
小吳批評的評論家說了粗話,評論家說了粗話？,說了,評論家,粗話,小吳,的,f,批評,12,2,29,0,6,6,4,space,0.342618096322,space,0.479952616995,space,0.546372500496,space,0.408148660419,space,1.96602784087,space,0.645917854199,space,0.515317766891,f,1,1.60284369057,SPR,zhang,B,,female,59.1605795117,001,2016_04_28_1703,
侮辱空服員的旅客拿出了凶器,空服員把凶器藏了起來？,拿出了,旅客,凶器,侮辱,的,j,空服員,13,1,58,0,7,7,9,space,0.375881720909,space,0.511950747576,space,0.718761521086,space,0.442650148143,space,0.513376895375,space,0.735481752177,space,1.14359567664,j,1,2.99242085136,SPR,zhang,B,,female,59.1605795117,001,2016_04_28_1703,
責罵小明的管理員掄起了拳頭,管理員握起了拳頭？,掄起了,管理員,拳頭,責罵,的,f,小明,13,1,59,0,8,8,10,space,0.399277571072,space,0.37478753832,space,0.618740126898,space,0.375910535971,space,1.02014961723,space,1.58659476324,space,0.524621082041,f,1,1.86212194057,SPR,zhang,B,,female,59.1605795117,001,2016_04_28_1703,
媽媽的拿手菜是糖醋排骨,媽媽會煮糖醋排骨?,糖醋,是,排骨,媽媽,拿手菜,f,的,11,3,59,0,9,9,18,space,0.342744803616,space,0.409261000445,space,0.42487204932,space,0.580801358497,space,0.492096780683,space,1.07700290282,space,0.736122393719,f,1,2.32709665043,SPR,zhang,B,,female,59.1605795117,001,2016_04_28_1703,
駕駛員碰見的盜賊撕了名畫,駕駛員毀壞了名畫？,撕了,盜賊,名畫,駕駛員,的,j,碰見,12,2,32,0,10,10,7,space,0.357559688608,space,0.509263053027,space,0.560055309114,space,0.629823265037,space,0.612585547162,space,1.19319546317,space,0.564383093384,j,1,2.77454825495,SPR,zhang,B,,female,59.1605795117,001,2016_04_28_1703,
撞見業務員的藝人衝進了現場,藝人闖進了現場？,衝進了,藝人,現場,撞見,的,f,業務員,13,1,63,0,11,11,14,space,0.391442244763,space,0.52577723674,space,0.548770860318,space,0.443317631107,space,0.0674982770142,space,1.10394063625,space,0.960195752901,f,1,2.56009320288,SPR,zhang,B,,female,59.1605795117,001,2016_04_28_1703,
責備治療師的婦女察覺了動靜,治療師察覺了動靜？,察覺了,婦女,動靜,責備,的,j,治療師,13,1,62,0,12,12,13,space,0.337549409924,space,0.579871776958,space,1.0040451599,space,0.374235710304,space,0.476248501029,space,0.56843654254,space,0.784612998032,j,1,3.0228921788,SPR,zhang,B,,female,59.1605795117,001,2016_04_28_1703,
犯人檢舉的同伴知道了敵情,犯人知道了敵情？,知道了,同伴,敵情,犯人,的,j,檢舉,12,2,26,0,13,13,1,space,0.338559515723,space,0.512909933612,space,0.580814779198,space,0.459253540103,space,1.71208827038,space,0.531095390463,space,1.18084840992,j,1,3.89792484244,SPR,zhang,B,,female,59.1605795117,001,2016_04_28_1703,
朋友們推薦了許多好聽的歌曲,朋友們推薦了歌曲?,的,好聽,歌曲,朋友們,許多,f,推薦了,13,3,57,0,14,14,16,space,0.359275171133,space,0.494068440887,space,1.17745533864,space,0.578533653221,space,0.563358382693,space,0.409343498337,space,0.750370845795,f,1,2.54279035509,SPR,zhang,B,,female,59.1605795117,001,2016_04_28_1703,
叔叔協助的警察破了大案件,警察偵破了大案件？,破了,警察,大案件,叔叔,的,f,協助,12,2,31,0,15,15,6,space,0.360466456514,space,0.475486283642,space,0.559971627044,space,0.493178332028,space,1.67398095364,space,0.425990704978,space,0.563020496586,f,1,2.23831628508,SPR,zhang,B,,female,59.1605795117,001,2016_04_28_1703,
熱鬧的夜市有很多美味的食物,夜市裡有很多美食?,的,美味,食物,熱鬧的,有很多,f,夜市,13,3,61,0,16,16,20,space,0.374772933428,space,0.357805603388,space,0.953527633632,space,1.85842729804,space,0.601006632198,space,0.408213790339,space,0.477101110839,f,1,1.81711401051,SPR,zhang,B,,female,59.1605795117,001,2016_04_28_1703,
上尉惹怒的服務員扔了盤子,盤子是上尉扔的？,扔了,服務員,盤子,上尉,的,j,惹怒,12,2,30,0,17,17,5,space,0.428864315829,space,0.0672195999214,space,1.09501231153,space,0.683988856072,space,0.748701546305,space,0.784774046559,space,0.630194702921,j,1,1.67591748316,SPR,zhang,B,,female,59.1605795117,001,2016_04_28_1703,
詆毀代理商的律師吃上了官司,律師碰上了官司？,吃上了,律師,官司,詆毀,的,f,代理商,13,1,61,0,18,18,12,space,0.817108879062,space,0.514332923602,space,0.529097678293,space,0.428404459148,space,0.596783845256,space,0.767715534632,space,1.80894356118,f,1,2.93567769454,SPR,zhang,B,,female,59.1605795117,001,2016_04_28_1703,
市民信任的委員爭到了選票,委員放棄了選票？,爭到了,委員,選票,市民,的,j,信任,12,2,28,0,19,19,3,space,0.338911611994,space,0.546171979295,space,0.630954551954,space,0.360300276545,space,0.596455037856,space,0.833779769302,space,0.734952423583,j,1,1.5911672781,SPR,zhang,B,,female,59.1605795117,001,2016_04_28_1703,
童年的回憶總是美好而快樂的,童年的回憶很痛苦?,而,美好,快樂的,童年的,總是,j,回憶,13,3,62,0,20,20,21,space,0.374720829495,space,0.465673376231,space,0.465249439687,space,0.460562454064,space,0.460320486556,space,0.459368010874,space,0.429465089976,j,1,1.60150438265,SPR,zhang,B,,female,59.1605795117,001,2016_04_28_1703,
我今天學會了一個新的技能,我今天沒學新技能?,新的,一個,技能,我,學會了,j,今天,12,3,60,0,21,21,19,space,0.563114441553,space,0.441612411472,space,0.442845932623,space,0.701277098975,space,0.564463222916,space,0.530836054968,space,0.679685150142,j,1,1.92677936906,SPR,zhang,B,,female,59.1605795117,001,2016_04_28_1703,
隔壁的大伯擅長修理各種電器,大伯不會修理電器?,各種,修理,電器,隔壁的,擅長,j,大伯,13,3,64,0,22,22,23,space,0.342510335926,space,0.476930588877,space,0.476191660375,space,0.545330421824,space,0.529661348119,space,0.547757596716,space,0.666466934919,j,1,1.59948259216,SPR,zhang,B,,female,59.1605795117,001,2016_04_28_1703,
孩子親近的阿姨迷失了方向,阿姨迷路了？,迷失了,阿姨,方向,孩子,的,f,親近,12,2,27,0,23,23,2,space,0.359168200186,space,0.429772582123,space,0.667966501904,space,0.808482915047,space,1.25188107041,space,0.595555060827,space,0.476728094043,f,1,1.4824007124,SPR,zhang,B,,female,59.1605795117,001,2016_04_28_1703,
桌子上擺滿了一大堆舊的文件,桌上沒有文件?,的,舊,文件,桌子上,一大堆,j,擺滿了,12,3,52,0,0,0,19,space,0.646629546565,space,1.29397196967,space,0.804712879697,space,0.784209982005,space,0.546860382776,space,0.409208501784,space,0.424510874327,j,1,1.03954451688,SPR,zhang,B,,female,59.1605795117,001,2016_04_28_1703,
上司嘲笑的會計偽造了帳目,會計偽造了帳目？,偽造了,會計,帳目,上司,的,f,嘲笑,12,2,23,0,1,1,6,space,0.354028462956,space,0.631018102962,space,0.634439199843,space,0.546557627342,space,1.30561877762,space,0.550745283603,space,1.02482357687,f,1,1.17653325691,SPR,zhang,B,,female,59.1605795117,001,2016_04_28_1703,
照顧小崔的飛行員擊落了敵機,飛行員打落了敵機？,擊落了,飛行員,敵機,照顧,的,f,小崔,13,1,49,0,2,2,8,space,0.42697357462,space,0.529624243798,space,0.509396865389,space,0.492718475347,space,1.16418028277,space,0.921646736919,space,2.03630736268,f,1,1.56915297162,SPR,zhang,B,,female,59.1605795117,001,2016_04_28_1703,
小郭取笑的廚師偷聽了對話,小郭表揚了廚師？,偷聽了,廚師,對話,小郭,的,j,取笑,12,2,22,0,3,3,5,space,0.357768104339,space,0.0667798743088,space,1.47112652651,space,0.37586119512,space,0.515324477245,space,0.478240687014,space,1.03670406308,j,1,2.06951533079,SPR,zhang,B,,female,59.1605795117,001,2016_04_28_1703,
表姐熟識的院士解釋了理論,表姐解釋了理論？,解釋了,院士,理論,表姐,的,j,熟識,12,2,24,0,4,4,7,space,0.376066058314,space,0.426972390436,space,1.31385475161,space,0.392746027268,space,0.68446173874,space,0.579780595071,space,0.854948965774,j,1,1.18599367332,SPR,zhang,B,,female,59.1605795117,001,2016_04_28_1703,
每週都有寫不完的作業和報告,每週都有作業?,作業和,的,報告,每週,寫不完,f,都有,13,3,53,0,5,5,20,space,0.391233434304,space,0.447680546051,space,0.481364159918,space,0.491665344329,space,0.360245804251,space,0.498726611455,space,0.425920048881,f,1,1.89446072034,SPR,zhang,B,,female,59.1605795117,001,2016_04_28_1703,
表哥結識的中醫師開了偏方,中醫生開錯了偏方？,開了,中醫師,偏方,表哥,的,j,結識,12,2,20,0,6,6,3,space,0.392631556511,space,0.442296078232,space,0.514364501752,space,0.353498344914,space,0.546198820717,space,0.529743451283,space,0.755866231833,j,1,2.43018309795,SPR,zhang,B,,female,59.1605795117,001,2016_04_28_1703,
每個人的相處方式都不一樣,相處方式都一樣的?,都,方式,不一樣,每個人,相處,j,的,12,3,50,0,7,7,17,space,0.429368381912,space,0.497305200362,space,0.443875774748,space,0.717515763412,space,0.441632937262,space,0.338227155786,space,0.474947086877,j,1,1.98823753709,SPR,zhang,B,,female,59.1605795117,001,2016_04_28_1703,
週六有場精彩的戲劇要公演了,週六沒有戲劇公演?,戲劇,的,要公演了,週六,精彩,j,有場,13,3,54,0,8,8,21,space,0.442783565792,space,0.579830330651,space,1.67775256789,space,1.13494958155,space,0.428550508055,space,0.685834598436,space,0.664183045854,j,1,2.3331766268,SPR,zhang,B,,female,59.1605795117,001,2016_04_28_1703,
忽視小白的企業家投資了廣告,企業家投資了廣告？,投資了,企業家,廣告,忽視,的,f,小白,13,1,55,0,9,9,14,space,0.375937772114,space,0.47430762952,space,0.596811081399,space,0.457677790859,space,1.08932864082,space,0.545192267462,space,0.835483015304,f,1,3.38253286692,SPR,zhang,B,,female,59.1605795117,001,2016_04_28_1703,
表弟砍傷的疑犯發現了秘密,疑犯發現了秘密？,發現了,疑犯,秘密,表弟,的,f,砍傷,12,2,21,0,10,10,4,space,0.410517415738,space,0.408807459389,space,0.564553615339,space,0.513080850309,space,0.953051198434,space,0.479519996465,space,1.94848578866,f,1,3.02439648251,SPR,zhang,B,,female,59.1605795117,001,2016_04_28_1703,
音樂可以讓人身心得到放鬆,音樂會讓人放鬆?,得到,身心,放鬆,音樂,讓人,f,可以,12,3,51,0,11,11,18,space,0.326494297384,space,0.688487162304,space,0.596009391338,space,0.446726096729,space,0.425697817715,space,0.393855604212,space,0.369266100315,f,1,1.07542439048,SPR,zhang,B,,female,59.1605795117,001,2016_04_28_1703,
拉攏貴族的青年當上了執行長,貴族當上了執行長？,當上了,青年,執行長,拉攏,的,j,貴族,13,1,54,0,12,12,13,space,0.447500550639,space,0.684938963401,space,0.646360342907,space,0.665602878034,space,0.970938636565,space,0.635772981586,space,0.667902556175,j,1,1.22669750272,SPR,zhang,B,,female,59.1605795117,001,2016_04_28_1703,
輕視政府的逃亡者認清了事實,政府認清了事實？,認清了,逃亡者,事實,輕視,的,j,政府,13,1,56,0,13,13,15,space,0.375923561951,space,0.446580837284,space,1.06028385591,space,0.374582675126,space,0.630686927201,space,0.525135016287,space,0.491559952286,j,1,1.38645487207,SPR,zhang,B,,female,59.1605795117,001,2016_04_28_1703,
督促小謝的技術員趕上了進度,技術員落下了進度？,趕上了,技術員,進度,督促,的,j,小謝,13,1,50,0,14,14,9,space,0.559033756246,space,0.763877606281,space,0.852134169203,space,0.883277716333,space,1.45080559786,space,0.717899437826,space,0.871819982494,j,1,2.12427419616,SPR,zhang,B,,female,59.1605795117,001,2016_04_28_1703,
親近大自然的最好方式是旅遊,旅遊能夠親近大自然?,是,最好方式,旅遊,親近,的,f,大自然,13,3,55,0,15,15,22,space,0.374701093155,space,0.762400933447,space,0.680060930026,space,0.37580790701,space,0.669360282118,space,0.374832142443,space,0.409128372252,f,1,2.00464751295,SPR,zhang,B,,female,59.1605795117,001,2016_04_28_1703,
校園門口的那棵樹長滿了新葉,樹長滿了新葉?,長滿了,樹,新葉,校園門口,那棵,f,的,13,3,49,0,16,16,16,space,0.376226712106,space,0.696363540192,space,0.374696751162,space,0.499803031344,space,0.546243819568,space,0.590371508937,space,1.32960711266,f,1,1.45143400287,SPR,zhang,B,,female,59.1605795117,001,2016_04_28_1703,
袒護隊長的消防員聲援了遊行,隊長聲援了遊行？,聲援了,消防員,遊行,袒護,的,j,隊長,13,1,52,0,17,17,11,space,0.342679278976,space,0.684992646238,space,0.778309606314,space,1.12683992014,space,0.627436352283,space,1.59509086215,space,0.630834555013,j,1,2.88312100981,SPR,zhang,B,,female,59.1605795117,001,2016_04_28_1703,
雇主同情的技工拿到了專利,雇主毆打了技工？,拿到了,技工,專利,雇主,的,j,同情,12,2,18,0,18,18,1,space,0.292563979288,space,0.479527496274,space,0.425226513958,space,0.475737329863,space,0.474979059749,space,0.431026629056,space,0.59732067366,j,1,1.36911689359,SPR,zhang,B,,female,59.1605795117,001,2016_04_28_1703,
驅趕交警的行政人員亂扔垃圾,行政人員亂扔垃圾？,亂扔,行政人員,垃圾,驅趕,的,f,交警,13,1,53,0,19,19,12,space,0.338390572659,space,0.338466754925,space,0.598229729403,space,0.337277837913,space,0.955109303788,space,1.34414726782,space,0.494489614342,f,1,1.09441232684,SPR,zhang,B,,female,59.1605795117,001,2016_04_28_1703,
農夫辱罵的木匠造出了新房,木匠造出了新房？,造出了,木匠,新房,農夫,的,f,辱罵,12,2,19,0,20,20,2,space,0.35921754103,space,0.59927417642,space,0.530941447025,space,0.408756144905,space,0.802090709796,space,0.546250529915,space,0.905118343035,f,1,1.43379721623,SPR,zhang,B,,female,59.1605795117,001,2016_04_28_1703,
博物館裡有很多珍貴的收藏品,博物館沒有收藏品?,的,珍貴,收藏品,博物館裡,很多,j,有,13,3,56,0,21,21,23,space,0.375869089657,space,0.596357145616,space,0.524888706794,space,0.491698106656,space,0.615590602029,space,0.403734430991,space,0.751369899241,j,1,1.57335602222,SPR,zhang,B,,female,59.1605795117,001,2016_04_28_1703,
資助航海家的演員擔任了主角,演員當上了主角？,擔任了,演員,主角,資助,的,f,航海家,13,1,51,0,22,22,10,space,0.381258688925,space,0.459305249307,space,0.584137983846,space,0.375380417921,space,1.12699938975,space,0.5130409829,space,0.629237095789,f,1,1.2361516035,SPR,zhang,B,,female,59.1605795117,001,2016_04_28_1703,
老婆迷戀的編輯出版了新書,編輯出版了新書？,出版了,編輯,新書,老婆,的,f,迷戀,12,2,17,0,23,23,0,space,0.304431044788,space,0.479655387746,space,0.618171720351,space,0.359416483319,space,0.546579337315,space,0.465047339581,space,0.513854909499,f,1,0.927187911257,SPR,zhang,B,,female,59.1605795117,001,2016_04_28_1703,
總統拜訪的老人遭遇了車禍,老人遭遇了車禍？,遭遇了,老人,車禍,總統,的,f,拜訪,12,2,11,0,0,0,2,space,0.377012613098,space,0.596429380625,space,0.789847864406,space,0.596297147153,space,0.733180495132,space,0.597880790941,space,1.65581720677,f,1,0.784963515405,SPR,zhang,B,,female,59.1605795117,001,2016_04_28_1703,
醫生厭煩的病人嘀咕了幾句,病人喜歡醫生？,嘀咕了,病人,幾句,醫生,的,j,厭煩,12,2,10,0,1,1,1,space,0.320333007294,space,0.407625647451,space,0.699138074633,space,0.529842527707,space,0.5803841323,space,0.646484681834,space,0.459358537424,j,1,2.63557877601,SPR,zhang,B,,female,59.1605795117,001,2016_04_28_1703,
關心小金的助教迷上了遊戲,助教喜歡打遊戲？,迷上了,助教,遊戲,關心,的,f,小金,12,1,41,0,2,2,8,space,0.326975864038,space,0.375567518407,space,0.458666581399,space,0.375632253599,space,0.4806899666,space,0.491745473868,space,2.99073497334,f,1,1.68048289293,SPR,zhang,B,,female,59.1605795117,001,2016_04_28_1703,
她的書架上擺放了一大堆的書,她的書架上沒有書?,的,一大堆,書,她的,擺放了,j,書架上,13,3,42,0,3,3,17,space,0.359133069498,space,0.476115872836,space,0.682697310091,space,0.803587908413,space,0.428388275352,space,0.426165568933,space,0.613075797803,j,1,1.15902199339,SPR,zhang,B,,female,59.1605795117,001,2016_04_28_1703,
張三認識的司機違反了規定,司機不遵守規定？,違反了,司機,規定,張三,的,f,認識,12,2,9,0,4,4,0,space,0.38069738746,space,0.474688935574,space,0.78491693765,space,0.733201415649,space,0.612225161625,space,0.663307936607,space,1.30915750308,f,1,1.62305212209,SPR,zhang,B,,female,59.1605795117,001,2016_04_28_1703,
哥哥嫉妒的富商觸犯了法律,哥哥違反了法律？,觸犯了,富商,法律,哥哥,的,j,嫉妒,12,2,14,0,5,5,5,space,0.310432075814,space,0.337768088553,space,0.492693212829,space,0.337179156217,space,0.493878577312,space,0.599619167617,space,0.800630615478,j,1,1.2130486406,SPR,zhang,B,,female,59.1605795117,001,2016_04_28_1703,
攔住廣播員的大叔拿錯了行李,廣播員拿錯了行李？,拿錯了,大叔,行李,攔住,的,j,廣播員,13,1,46,0,6,6,13,space,0.305426545689,space,0.342402180788,space,0.524916337665,space,0.339646987959,space,0.425963468828,space,0.645976668493,space,0.63114481025,j,1,1.2344467786,SPR,zhang,B,,female,59.1605795117,001,2016_04_28_1703,
隊員維護的教練得罪了評審,教練得罪了評審？,得罪了,教練,評審,隊員,的,f,維護,12,2,15,0,7,7,6,space,0.392626425062,space,0.354149249353,space,0.530608297624,space,0.975809170137,space,0.819104222872,space,0.569270205473,space,0.629561561196,f,1,2.32594365354,SPR,zhang,B,,female,59.1605795117,001,2016_04_28_1703,
大學部設置了許多不同的課程,大學部有很多課程?,教學,的,課程,大學部,許多不同,f,設置了,13,3,47,0,8,8,22,space,0.342084031006,space,0.346966011653,space,0.414877962328,space,0.767126602295,space,0.376925378485,space,0.427450009833,space,0.337824534479,f,1,1.89740932929,SPR,zhang,B,,female,59.1605795117,001,2016_04_28_1703,
害怕老闆的藥劑師調配了新藥,藥劑師調配了新藥？,調配了,藥劑師,新藥,害怕,的,f,老闆,13,1,43,0,9,9,10,space,0.477185187643,space,0.58598688402,space,0.635171812719,space,2.17249441264,space,0.758984178559,space,1.36096736478,space,0.47937828955,f,1,1.20136235996,SPR,zhang,B,,female,59.1605795117,001,2016_04_28_1703,
佩服科學家的商人買下了產品,商人買下了產品？,買下了,商人,產品,佩服,的,f,科學家,13,1,45,0,10,10,12,space,0.338458860395,space,0.409419680604,space,0.49757756183,space,0.475598780773,space,0.580828989361,space,0.783764730215,space,0.325233934818,f,1,0.801495461827,SPR,zhang,B,,female,59.1605795117,001,2016_04_28_1703,
讚賞女婿的工程師籌辦了晚宴,工程師舉辦了一場晚宴？,籌辦了,工程師,晚宴,讚賞,的,f,女婿,13,1,47,0,11,11,14,space,0.309232106447,space,0.359141358764,space,0.547508918855,space,0.321913493259,space,0.509220422537,space,0.550970672586,space,0.560695161206,f,1,1.62518167299,SPR,zhang,B,,female,59.1605795117,001,2016_04_28_1703,
小王欣賞的村長參加了競選,小王不想去競選？,參加了,村長,競選,小王,的,j,欣賞,12,2,12,0,12,12,3,space,0.424746526201,space,0.342694673316,space,0.459469060916,space,0.407693540452,space,0.459808525942,space,0.392337090343,space,0.461613216721,j,1,0.976391392112,SPR,zhang,B,,female,59.1605795117,001,2016_04_28_1703,
飛上太空是許多人心中的夢想,很多人想飛上太空?,的,心中,夢想,飛上太空,許多人,f,是,13,3,43,0,13,13,18,space,0.375888036542,space,0.738354968307,space,0.342212711934,space,0.396251595688,space,0.512206530511,space,0.326032861798,space,0.904945847433,f,1,2.02213904013,SPR,zhang,B,,female,59.1605795117,001,2016_04_28_1703,
小朋友需要父母的關愛和鼓勵,小朋友不需要父母的關愛?,關愛和,的,鼓勵,小朋友,父母,j,需要,13,3,48,0,14,14,23,space,0.392562874054,space,0.322161776399,space,0.834904740586,space,0.38564134021,space,0.320408400104,space,0.580098744846,space,0.425796499403,j,1,1.11437286996,SPR,zhang,B,,female,59.1605795117,001,2016_04_28_1703,
王總邀請的政客出席了宴會,政客參加了宴會？,出席了,政客,宴會,王總,的,f,邀請,12,2,13,0,15,15,4,space,0.376188423608,space,0.407974191185,space,0.44497153625,space,0.425981231529,space,0.459009204234,space,0.835892741685,space,0.493316486391,f,1,1.46908815749,SPR,zhang,B,,female,59.1605795117,001,2016_04_28_1703,
群眾欺瞞的主席失去了權力,群眾得到了權力？,失去了,主席,權力,群眾,的,j,欺瞞,12,2,16,0,16,16,7,space,0.325223277192,space,0.392710501867,space,0.37603408545,space,0.88439479308,space,0.696506431283,space,0.507187974406,space,0.413358659003,j,1,1.76888195222,SPR,zhang,B,,female,59.1605795117,001,2016_04_28_1703,
老師今天分配了很多重要的任務,老師今天分配了任務?,的,很多重要,任務,老師,分配了,f,今天,11,3,45,0,17,17,20,space,0.292761342673,space,0.374648594494,space,0.578871539336,space,0.684718705867,space,0.734602695673,space,0.4428972471,space,0.442302788586,f,1,1.73741433443,SPR,zhang,B,,female,59.1605795117,001,2016_04_28_1703,
唆使兇嫌的槍手瞄準了目標,槍手無法找到目標？,瞄準了,槍手,目標,唆使,的,j,兇嫌,12,1,42,0,18,18,9,space,0.312105717305,space,0.374888983097,space,0.496510220662,space,0.325276565309,space,0.341863378744,space,0.630872448783,space,0.668191890887,j,1,0.905319653684,SPR,zhang,B,,female,59.1605795117,001,2016_04_28_1703,
學校的操場上聚集了很多學生,操場上沒有學生?,很多,聚集了,學生,學校,操場上,j,的,13,3,44,0,19,19,19,space,0.304354862521,space,0.476967693197,space,0.359069913218,space,0.546528812287,space,0.579779805623,space,0.45793396853,space,0.765027050627,j,1,0.771324521455,SPR,zhang,B,,female,59.1605795117,001,2016_04_28_1703,
尊敬在地人的導遊受到了表揚,在地人不喜歡導遊？,受到了,導遊,表揚,尊敬,的,j,在地人,13,1,44,0,20,20,11,space,0.343245711883,space,0.342714409657,space,1.14798819609,space,0.380100560586,space,0.964111837144,space,0.47515037116,space,0.597427249886,j,1,1.1170147762,SPR,zhang,B,,female,59.1605795117,001,2016_04_28_1703,
今年新出了很多部好看的美劇,今年有好看的美劇?,的,好看,美劇,今年,很多部,f,新出了,13,3,41,0,21,21,16,space,0.392049729257,space,0.358508217032,space,0.443403681536,space,0.619100512435,space,0.409034822005,space,0.321031673666,space,0.497538483891,f,1,1.4989279221,SPR,zhang,B,,female,59.1605795117,001,2016_04_28_1703,
羨慕舞者的造型師登上了雜誌,在雜誌上能看到舞者？,登上了,造型師,雜誌,羨慕,的,j,舞者,13,1,48,0,22,22,15,space,0.669101341358,space,0.496604560358,space,0.445009824747,space,0.320723786783,space,1.18979686571,space,0.392447613842,space,0.596620033641,f,0,4.4085524659,SPR,zhang,B,,female,59.1605795117,001,2016_04_28_1703,
姐姐非常喜歡吃抹茶霜淇淋,姐姐討厭吃霜淇淋?,抹茶,吃,霜淇淋,姐姐,喜歡,j,非常,12,3,46,0,23,23,21,space,0.345599862325,space,0.409387707739,space,0.527857841524,space,0.530477643071,space,0.612730411878,space,0.740907666303,space,0.596772792902,j,1,1.03118933543,SPR,zhang,B,,female,59.1605795117,001,2016_04_28_1703,
小潘舉薦的水手開啟了旅程,水手開啟了旅程？,開啟了,水手,旅程,小潘,的,f,舉薦,12,2,7,0,0,0,6,space,0.358702027872,space,1.15932553827,space,1.41524071623,space,0.663337541118,space,0.545684097007,space,0.496597455276,space,0.498105311519,f,1,1.02382610233,SPR,zhang,B,,female,59.1605795117,001,2016_04_28_1703,
手機是個既方便又重要的發明,手機是個不好的發明?,的,又重要,發明,手機,既方便,j,是個,13,3,36,0,1,1,19,space,0.375933824849,space,0.443261185173,space,0.525121200852,space,0.616107299371,space,0.512195083444,space,0.380012931251,space,0.476780197983,j,1,1.1878161268,SPR,zhang,B,,female,59.1605795117,001,2016_04_28_1703,
領隊欽佩的組長煮了美食,組長討厭領隊？,煮了,組長,美食,領隊,的,j,欽佩,11,2,6,0,2,2,5,space,0.32440145607,space,0.80840475914,space,0.409198633621,space,0.337239944136,space,0.582002906769,space,0.45891960126,space,0.715585154801,j,1,0.986705997238,SPR,zhang,B,,female,59.1605795117,001,2016_04_28_1703,
徐總賞識的詩人獲得了好評,徐總獲得了好評？,獲得了,詩人,好評,徐總,的,j,賞識,12,2,8,0,3,3,7,space,0.305561147514,space,0.375079241399,space,0.353895045315,space,0.376146187846,space,0.34187166801,space,0.425326379824,space,0.522487189141,j,1,1.1086295955,SPR,zhang,B,,female,59.1605795117,001,2016_04_28_1703,
指使搶匪的殺手發生了不測,殺手遭遇不測了？,發生了,殺手,不測,指使,的,f,搶匪,12,1,35,0,4,4,10,space,0.375926325039,space,0.341381417369,space,0.751843571357,space,0.305093791023,space,0.358054281249,space,0.458272249365,space,0.429646269557,f,1,1.10934405096,SPR,zhang,B,,female,59.1605795117,001,2016_04_28_1703,
誣陷主人的管家怒斥了園丁,主人誇獎了園丁？,怒斥了,管家,園丁,誣陷,的,j,主人,12,1,34,0,5,5,9,space,0.320914045085,space,0.392463797631,space,0.839268839722,space,0.337164156605,space,0.631064680718,space,0.43085926491,space,0.700259888101,j,1,0.979569337309,SPR,zhang,B,,female,59.1605795117,001,2016_04_28_1703,
救治嬸嬸的鄰居染上了毒癮,嬸嬸染上了毒癮？,染上了,鄰居,毒癮,救治,的,j,嬸嬸,12,1,38,0,6,6,13,space,0.358296643484,space,0.646553364299,space,0.546148690417,space,0.366004078314,space,0.596622007281,space,0.457852260086,space,0.491715474629,j,1,0.883788098043,SPR,zhang,B,,female,59.1605795117,001,2016_04_28_1703,
弟弟傷害的同學打了老師,同學推開了老師？,打了,同學,老師,弟弟,的,j,傷害,11,2,4,0,7,7,3,space,0.325868655455,space,0.305003003872,space,0.494458825655,space,0.359374642278,space,0.459279197348,space,0.414805332606,space,0.52151695075,j,1,2.21750352689,SPR,zhang,B,,female,59.1605795117,001,2016_04_28_1703,
善待動物們是對生命的尊重,應該善待動物?,的,生命,尊重,善待,是對,f,動物們,12,3,35,0,8,8,18,space,0.320888782575,space,0.320807074131,space,0.545099506671,space,0.337577435523,space,0.73388745077,space,0.392502086128,space,0.409365997766,f,1,1.161232858,SPR,zhang,B,,female,59.1605795117,001,2016_04_28_1703,
每年都會頒布新的法規制度,每年不會有新制度?,法規,的,制度,每年,新,j,都會頒布,12,3,34,0,9,9,17,space,0.3266715297,space,0.567499855926,space,0.612491602194,space,0.40913981932,space,0.374615832174,space,0.427103439732,space,0.476655859049,j,1,1.32339450809,SPR,zhang,B,,female,59.1605795117,001,2016_04_28_1703,
和朋友們一起喝下午茶很開心,喝下午茶很開心?,下午茶,喝,很開心,和,一起,f,朋友們,13,3,39,0,10,10,22,space,0.361277620017,space,0.337244286129,space,0.528706898796,space,0.376086978831,space,0.409265737158,space,0.480024851997,space,0.612742648409,f,1,1.31731453171,SPR,zhang,B,,female,59.1605795117,001,2016_04_28_1703,
愛慕局長的學生考上了大學,學生考上了大學？,考上了,學生,大學,愛慕,的,f,局長,12,1,33,0,11,11,8,space,0.375628306327,space,0.41066938555,space,0.56389205328,space,0.359639503942,space,1.59157266248,space,0.424799814326,space,0.508525308695,f,1,1.99065523854,SPR,zhang,B,,female,59.1605795117,001,2016_04_28_1703,
賄賂小陳的企劃員擅長宣傳,小陳不懂宣傳？,擅長,企劃員,宣傳,賄賂,的,j,小陳,12,1,36,0,12,12,11,space,0.342621254138,space,0.391661318121,space,0.341652199932,space,0.376061321593,space,0.563280621522,space,0.597528694663,space,0.595848737546,j,1,1.64164612114,SPR,zhang,B,,female,59.1605795117,001,2016_04_28_1703,
小周羞辱的導演做了壞事,導演做了不好的事？,做了,導演,壞事,小周,的,f,羞辱,11,2,5,0,13,13,4,space,0.458882891675,space,0.441886351844,space,0.580456762022,space,0.380325554848,space,0.544317158216,space,0.374074267049,space,0.458360273435,f,1,1.40634910109,SPR,zhang,B,,female,59.1605795117,001,2016_04_28_1703,
留學的生活能夠磨礪人的意志,留學生活能鍛鍊人?,人的,磨礪,意志,留學的,能夠,f,生活,13,3,37,0,14,14,20,space,0.328314382503,space,0.409293762765,space,0.375924746135,space,0.462884631626,space,0.562774976534,space,0.409061663428,space,0.564355857234,f,1,1.95122756077,SPR,zhang,B,,female,59.1605795117,001,2016_04_28_1703,
阿姨親手製作了一個生日蛋糕,阿姨沒做蛋糕?,生日,一個,蛋糕,阿姨,製作了,j,親手,13,3,38,0,15,15,21,space,0.303596592406,space,0.409431127679,space,0.37690406324,space,0.396586323979,space,0.57833747402,space,0.701658010308,space,0.391393693368,j,1,0.88848732019,SPR,zhang,B,,female,59.1605795117,001,2016_04_28_1703,
小張崇拜的作家寫了首詩,作家會寫詩歌？,寫了,作家,詩歌,小張,的,f,崇拜,11,2,1,0,16,16,0,space,0.323508189394,space,0.409268500254,space,0.479820778259,space,0.358105201005,space,0.446649125013,space,0.480419973494,space,1.34748468263,f,1,1.67986711918,SPR,zhang,B,,female,59.1605795117,001,2016_04_28_1703,
招待船長的賓客接受了訪問,賓客接受了訪問？,接受了,賓客,訪問,招待,的,f,船長,12,1,37,0,17,17,12,space,0.303829086472,space,0.353993332275,space,0.442770145077,space,0.303828297016,space,0.353861888267,space,2.88646592442,space,0.353900966213,f,1,1.00548630732,SPR,zhang,B,,female,59.1605795117,001,2016_04_28_1703,
掩護戰士的村民躲進了樹洞,村民跑出了樹洞？,躲進了,村民,樹洞,掩護,的,j,戰士,12,1,40,0,18,18,15,space,0.409201396702,space,0.342817828066,space,0.326116543867,space,0.429376671178,space,0.888593501695,space,0.358743474178,space,0.358452165827,j,1,1.12988050042,SPR,zhang,B,,female,59.1605795117,001,2016_04_28_1703,
聽說吃黑巧克力可以提高智商,巧克力不能提高智商?,提高,可以,智商,聽說,黑巧克力,j,吃,13,3,40,0,19,19,23,space,2.00028183492,space,0.35810164846,space,0.37664512248,space,0.545530943025,space,0.375937377386,space,0.374500966689,space,0.543267579749,j,1,1.21955965861,SPR,zhang,B,,female,59.1605795117,001,2016_04_28_1703,
爺爺一句話就把大家逗開心了,爺爺把大家逗開心了?,逗,大家,開心了,爺爺,就把,f,一句話,12,3,33,0,20,20,16,space,0.359063992313,space,0.442779223791,space,0.614078009065,space,0.497397961153,space,0.442536466828,space,0.342736119637,space,0.547587074747,f,1,0.866057366431,SPR,zhang,B,,female,59.1605795117,001,2016_04_28_1703,
工人表揚的廠長漲了薪水,廠長上調了薪水？,漲了,廠長,薪水,工人,的,f,表揚,11,2,3,0,21,21,2,space,0.597850002247,space,0.375884878726,space,0.459189989095,space,0.356854706602,space,0.427126333881,space,0.46208886247,space,0.546454998388,f,1,2.56070700301,SPR,zhang,B,,female,59.1605795117,001,2016_04_28_1703,
襲擊刺客的鐵匠鑄造了寶劍,鐵匠救了刺客？,鑄造了,鐵匠,寶劍,襲擊,的,f,刺客,12,1,39,0,22,22,14,space,0.342097057001,space,0.631095074677,space,0.327569138368,space,0.514218847566,space,0.443134477886,space,0.513314133823,space,0.376052637599,j,0,1.53420741628,SPR,zhang,B,,female,59.1605795117,001,2016_04_28_1703,
房東厭惡的小孩吃了蘋果,房東扔掉蘋果？,吃了,小孩,蘋果,房東,的,j,厭惡,11,2,2,0,23,23,1,space,0.359041887619,space,0.358088227746,space,0.464191177227,space,0.409277578969,space,0.956363745448,space,0.613058035102,space,0.597182914011,j,1,1.99420343744,SPR,zhang,B,,female,59.1605795117,001,2016_04_28_1703,
