Sentences,Question,word5,word4,word6,word1,word3,Ans,word2,lenth,Type,ID,practicetrials.thisRepN,practicetrials.thisTrialN,practicetrials.thisN,practicetrials.thisIndex,key_resp_12.keys,key_resp_12.rt,Atests1.keys,Atests1.rt,Atests2.keys,Atests2.rt,Atests3.keys,Atests3.rt,Atests4.keys,Atests4.rt,Atests5.keys,Atests5.rt,Atests6.keys,Atests6.rt,key_resp_8.keys,key_resp_8.corr,key_resp_8.rt,expName,participant,version,Grade,Gender,frameRate,session,date,
叔叔有很多棟房子和別墅,叔叔沒有很多房子？,和,房子,別墅,叔叔,很多棟,j,有,11,3,8,0,0,0,23,space,0.784095843177,space,0.350161128095,space,0.400313730061,space,0.38404816002,space,0.350408228027,space,0.46682466325,space,0.333721088129,j,1,1.30059982915,SPR,33,A,,f,60.0065847844,001,2016_11_23_1637,
表揚工人的廠長漲了薪水,廠長上調了薪水？,漲了,廠長,薪水,表揚,的,f,工人,11,1,3,0,1,1,2,space,0.383795928617,space,0.350489542063,space,0.367086289218,space,0.333791744488,space,0.366820242285,space,0.383792770765,space,0.40041556998,f,1,1.55044430619,SPR,33,A,,f,60.0065847844,001,2016_11_23_1637,
厭惡房東的小孩吃了蘋果,房東扔掉蘋果？,吃了,小孩,蘋果,厭惡,的,j,房東,11,1,2,0,2,2,1,space,0.317040658585,space,0.317108551884,space,0.283787165652,space,0.350458358531,space,0.333774376457,space,0.333770034456,space,0.367122604192,j,1,1.4337937971,SPR,33,A,,f,60.0065847844,001,2016_11_23_1637,
小陳賄賂的企劃員擅長宣傳,小陳不懂宣傳？,擅長,企劃員,宣傳,小陳,的,j,賄賂,12,2,36,0,3,3,11,space,0.317099867854,space,0.300415491016,space,0.300392202073,space,0.350460726913,space,0.283763481944,space,0.317123156827,space,0.350370334112,f,0,2.30067127498,SPR,33,A,,f,60.0065847844,001,2016_11_23_1637,
局長愛慕的學生考上了大學,學生考上了大學？,考上了,學生,大學,局長,的,f,愛慕,12,2,33,0,4,4,8,space,0.38375487685,space,0.483822059614,space,0.450140681176,space,0.367138788046,space,0.300469568814,space,0.433940636023,space,0.350692037697,f,1,1.88397474057,SPR,33,A,,f,60.0065847844,001,2016_11_23_1637,
主人誣陷的管家怒斥了園丁,主人誇獎了園丁？,怒斥了,管家,園丁,主人,的,j,誣陷,12,2,34,0,5,5,9,space,0.367117472721,space,0.333783849928,space,0.35045756906,space,0.500479989627,space,0.35013112874,space,0.483773508051,space,0.366995106946,j,1,3.06680934777,SPR,33,A,,f,60.0065847844,001,2016_11_23_1637,
老師這次沒有劃考試的重點,老師劃了考試重點？,的,劃考試,重點,老師,沒有,j,這次,12,3,4,0,6,6,19,space,0.350387702172,space,0.333968582767,space,0.467130972422,space,0.283764271386,space,0.350557040627,space,0.583960688207,space,0.533724798588,j,1,1.26709923628,SPR,33,A,,f,60.0065847844,001,2016_11_23_1637,
船長招待的賓客接受了訪問,賓客接受了訪問？,接受了,賓客,訪問,船長,的,f,招待,12,2,37,0,7,7,12,space,0.433886163519,space,0.334486861073,space,0.300599434413,space,0.350477700209,space,0.25044920083,space,0.350417701527,space,0.350412175292,f,1,1.55006852484,SPR,33,A,,f,60.0065847844,001,2016_11_23_1637,
搶匪指使的殺手發生了不測,殺手遭遇不測了？,發生了,殺手,不測,搶匪,的,f,指使,12,2,35,0,8,8,10,space,0.3171602613,space,0.36707050007,space,0.383817243943,space,0.317149998358,space,0.350435069558,space,0.30044470093,space,0.483673247043,f,1,2.6836714313,SPR,33,A,,f,60.0065847844,001,2016_11_23_1637,
傷害弟弟的同學打了老師,同學推開了老師？,打了,同學,老師,傷害,的,j,弟弟,11,1,4,0,9,9,3,space,0.35035572917,space,0.333749508573,space,0.250373807736,space,0.317085657618,space,0.31702013273,space,0.350380597054,space,0.383630932192,j,1,1.86743917631,SPR,33,A,,f,60.0065847844,001,2016_11_23_1637,
嬸嬸救治的鄰居染上了毒癮,嬸嬸染上了毒癮？,染上了,鄰居,毒癮,嬸嬸,的,j,救治,12,2,38,0,10,10,13,space,0.333787797194,space,0.30041864884,space,0.266795690201,space,0.300461279519,space,0.400412017421,space,0.283748087531,space,0.466763875098,j,1,1.10044651668,SPR,33,A,,f,60.0065847844,001,2016_11_23_1637,
警察逮捕了正在逃跑的罪犯,罪犯正在逃跑？,的,逃跑,罪犯,警察,正在,f,逮捕了,12,3,1,0,11,11,16,space,0.283740587678,space,0.33352609232,space,0.300394965161,space,0.367063000216,space,0.283834927744,space,0.350303230312,space,0.317127104092,f,1,1.11722365464,SPR,33,A,,f,60.0065847844,001,2016_11_23_1637,
欽佩領隊的組長煮了美食,組長討厭領隊？,煮了,組長,美食,欽佩,的,j,領隊,11,1,6,0,12,12,5,space,0.300458121696,space,0.350395596732,space,0.283727166941,space,0.350388096878,space,0.300446674577,space,0.383699614904,space,0.400595171377,j,1,2.08391726809,SPR,33,A,,f,60.0065847844,001,2016_11_23_1637,
究竟存不存在外星人仍是個謎,還沒法確定外星人的存在？,是個,仍,謎,究竟,外星人,f,存不存在,13,3,3,0,13,13,18,space,0.300396544073,space,0.467110051832,space,0.283724798559,space,0.367053526745,space,0.367078789335,space,0.467015711765,space,0.283680983732,f,1,1.60064703866,SPR,33,A,,f,60.0065847844,001,2016_11_23_1637,
刺客襲擊的鐵匠鑄造了寶劍,鐵匠救了刺客？,鑄造了,鐵匠,寶劍,刺客,的,f,襲擊,12,2,39,0,14,14,14,space,0.383745403378,space,0.350395201996,space,0.267106341373,space,0.317129077739,space,0.333773981722,space,0.517058184545,space,0.350371518289,j,0,2.28393203093,SPR,33,A,,f,60.0065847844,001,2016_11_23_1637,
賞識徐總的詩人獲得了好評,徐總獲得了好評？,獲得了,詩人,好評,賞識,的,j,徐總,12,1,8,0,15,15,7,space,0.350778483204,space,0.467113209656,space,0.433719193417,space,0.383736324642,space,0.400481489603,space,0.450591066212,space,0.500380518119,j,1,1.3671462879,SPR,33,A,,f,60.0065847844,001,2016_11_23_1637,
傳統小說有很多精華的部分,小說裡沒有精華？,的,精華,部分,傳統小說,很多 ,j,有 ,12,3,6,0,16,16,21,space,0.400196890492,space,0.750468937273,space,0.467132156627,space,0.533762297768,space,0.467062684445,space,0.450491199939,space,0.45042764867,j,1,1.95042488558,SPR,33,A,,f,60.0065847844,001,2016_11_23_1637,
公園裡擠滿了玩鬧的小孩,公園裡有小孩？,的,玩鬧,小孩,公園裡,滿了,f,擠,11,3,7,0,17,17,22,space,0.317195786833,space,0.383789612941,space,0.567075394705,space,0.450430806493,space,0.483453778084,space,0.517203839292,space,0.483779823699,f,1,1.10043428009,SPR,33,A,,f,60.0065847844,001,2016_11_23_1637,
羞辱小周的導演做了壞事,導演做了不好的事？,做了,導演,壞事,羞辱,的,f,小周,11,1,5,0,18,18,4,space,0.317101052031,space,0.367155366635,space,0.350429938087,space,0.333886874025,space,0.417047842639,space,0.450418569904,space,0.467116367479,f,1,1.53381084933,SPR,33,A,,f,60.0065847844,001,2016_11_23_1637,
戰士掩護的村民躲進了樹洞,村民跑出了樹洞？,躲進了,村民,樹洞,戰士,的,j,掩護,12,2,40,0,19,19,15,space,0.316786058829,space,0.433770113392,space,0.466787953512,space,0.484015081805,space,0.500448411389,space,0.450535804237,space,0.750418017298,j,1,1.75038959685,SPR,33,A,,f,60.0065847844,001,2016_11_23_1637,
茶餐廳裡有很多好吃的甜點,茶餐廳裡有甜點？,的,好吃,甜點,茶餐廳裡,很多,f,有,12,3,5,0,20,20,20,space,0.35057164554,space,0.517076342046,space,0.483726535371,space,0.466843215487,space,0.417062052846,space,0.483816533437,space,0.517074368399,f,1,0.967008606676,SPR,33,A,,f,60.0065847844,001,2016_11_23_1637,
舉薦小潘的水手開啟了旅程,水手開啟了旅程？,開啟了,水手,旅程,舉薦,的,f,小潘,12,1,7,0,21,21,6,space,0.383480935416,space,0.450360939576,space,0.550424964516,space,0.500458674331,space,0.617126551457,space,0.767090157547,space,0.567118420091,f,1,0.650490173633,SPR,33,A,,f,60.0065847844,001,2016_11_23_1637,
司機們大部分都比較好說話,司機們討厭說話？,好,比較,說話,司機們,都,j,大部分,12,3,2,0,22,22,17,space,0.283768218709,space,0.483735219401,space,0.350213232246,space,0.416882451478,space,0.417022185313,space,0.400464121572,space,0.400469253043,j,1,1.76733370492,SPR,33,A,,f,60.0065847844,001,2016_11_23_1637,
崇拜小張的作家寫了首詩,作家會寫詩歌？,寫了,作家,詩歌,崇拜,的,f,小張,11,1,1,0,23,23,0,space,0.0670576319098,space,0.517016738071,space,0.333691088774,space,0.300486147404,space,0.267096867901,space,0.300467989902,space,0.31707499997,f,1,1.20044304308,SPR,33,A,,f,60.0065847844,001,2016_11_23_1637,
有人明年要在高雄舉辦演唱會,高雄明年有演唱會？,舉辦,高雄,演唱會,有人,要在,f,明年,13,3,17,0,0,0,16,space,1.0339288731,space,0.417148103646,space,0.333720693394,space,0.417110209732,space,0.350388491614,space,0.383507776947,space,0.417096394231,f,1,1.18382182281,SPR,33,A,,f,60.0065847844,001,2016_11_23_1637,
小白忽视的企業家投資了廣告,企業家投資了廣告？,投資了,企業家,廣告,小白,的,f,忽視,13,2,55,0,1,1,14,space,0.367168787401,space,0.383818822855,space,0.333744377072,space,0.3671601034,space,0.300416675222,space,0.383667247195,space,0.400603065937,f,1,0.950371991959,SPR,33,A,,f,60.0065847844,001,2016_11_23_1637,
隊長袒護的消防員聲援了遊行,隊長聲援了遊行？,聲援了,消防員,遊行,隊長,的,j,袒護,13,2,52,0,2,2,11,space,0.35048717371,space,0.400412412157,space,0.333775955369,space,0.317107367708,space,0.467066237004,space,0.366839189257,space,0.417152445647,f,0,2.5338424276,SPR,33,A,,f,60.0065847844,001,2016_11_23_1637,
小謝督促的技術員趕上了進度,技術員落下了進度？,趕上了,技術員,進度,小謝,的,j,督促,13,2,50,0,3,3,9,space,0.333806744165,space,0.417118499026,space,0.417038763902,space,0.333795297047,space,0.450486068468,space,0.467143603746,space,0.500383281178,f,0,1.83384858535,SPR,33,A,,f,60.0065847844,001,2016_11_23_1637,
夏天是個非常美麗的季節,夏天是個美麗的季節？,的,美麗,季節,夏天,非常,f,是個,11,3,23,0,4,4,22,space,0.350381386525,space,0.683783928864,space,0.450390544225,space,0.317058816116,space,0.350399938732,space,0.400473595044,space,0.300401675544,f,1,1.41727757454,SPR,33,A,,f,60.0065847844,001,2016_11_23_1637,
交警驅趕的行政人員亂扔垃圾,行政人員亂扔垃圾？,亂扔,行政人員,垃圾,交警,的,f,驅趕,13,2,53,0,5,5,12,space,0.350437832647,space,0.48375100852,space,0.350374676113,space,0.367105630896,space,0.417277574539,space,0.500444069388,space,0.583714377746,f,1,1.03376032412,SPR,33,A,,f,60.0065847844,001,2016_11_23_1637,
妹妹的個性一向是冷冰冰的,妹妹的個性熱情？,是,一向,冷冰冰的,妹妹,個性,j,的,11,3,20,0,6,6,19,space,0.350397175614,space,0.400384386448,space,0.433733403654,space,0.433779981598,space,0.383835006709,space,0.383807770442,space,0.417317442101,j,1,0.933908663021,SPR,33,A,,f,60.0065847844,001,2016_11_23_1637,
同情雇主的技工拿到了專利,雇主毆打了技工？,拿到了,技工,專利,同情,的,j,雇主,12,1,18,0,7,7,1,space,0.283941899164,space,0.383670799725,space,0.367286416469,space,0.300443122018,space,0.367138788075,space,0.383752903232,space,0.466836110369,j,1,3.13386934809,SPR,33,A,,f,60.0065847844,001,2016_11_23_1637,
雨後有時會見到漂亮的彩虹,雨後可能看到彩虹？,的,漂亮,彩虹,雨後,會見到,f,有時,12,3,21,0,8,8,20,space,0.283744535001,space,0.317073815764,space,0.317073421058,space,0.267021080072,space,0.31698184408,space,0.283711377822,space,0.383681062667,f,1,1.20072053708,SPR,33,A,,f,60.0065847844,001,2016_11_23_1637,
小崔照顧的飛行員擊落了敵機,飛行員打落了敵機？,擊落了,飛行員,敵機,小崔,的,f,照顧,13,2,49,0,9,9,8,space,0.28318323131,space,0.383938425541,space,0.300415491016,space,0.333856479963,space,0.333709246275,space,0.333488987875,space,0.383706720022,f,1,1.53384479598,SPR,33,A,,f,60.0065847844,001,2016_11_23_1637,
如果天氣好的話我就去野餐,天氣好就不去野餐？,就,我,去野餐,如果,的話,j,天氣好,12,3,24,0,10,10,23,space,0.300541409379,space,0.333744771808,space,0.283824664832,space,0.300543777732,space,0.283754797914,space,0.283423226123,space,0.350484805327,j,1,1.9337673503,SPR,33,A,,f,60.0065847844,001,2016_11_23_1637,
航海家資助的演員擔任了主角,演員當上了主角？,擔任了,演員,主角,航海家,的,f,資助,13,2,51,0,11,11,10,space,0.300432069635,space,0.38383224362,space,0.250455121743,space,0.300464437343,space,0.383761192526,space,0.300524436054,space,0.383751719026,f,1,1.56729288999,SPR,33,A,,f,60.0065847844,001,2016_11_23_1637,
嘲笑上司的會計偽造了帳目,會計偽造了帳目？,偽造了,會計,帳目,嘲笑,的,f,上司,12,1,23,0,12,12,6,space,0.417165076942,space,0.350485594798,space,0.367161287577,space,0.350422438263,space,0.350290204253,space,0.417343888897,space,0.433789849805,f,1,0.933877874224,SPR,33,A,,f,60.0065847844,001,2016_11_23_1637,
結識表哥的中醫師開了偏方,中醫生開錯了偏方？,開了,中醫師,偏方,結識,的,j,表哥,12,1,20,0,13,13,3,space,0.233817717613,space,0.350472963502,space,0.233697325486,space,0.333738061425,space,0.250430253858,space,0.317123156798,space,0.333774771192,j,1,2.85070466899,SPR,33,A,,f,60.0065847844,001,2016_11_23_1637,
辱罵農夫的木匠造出了新房,木匠造出了新房？,造出了,木匠,新房,辱罵,的,f,農夫,12,1,19,0,14,14,2,space,0.300142339052,space,0.317228944012,space,0.750422359328,space,0.967123472597,space,0.415690371941,space,0.368415734178,space,0.383768297615,f,1,1.31724078587,SPR,33,A,,f,60.0065847844,001,2016_11_23_1637,
政府輕視的逃亡者認清了事實,政府認清了事實？,認清了,逃亡者,事實,政府,的,j,輕視,13,2,56,0,15,15,15,space,0.300505883817,space,0.333722667012,space,0.28351835566,space,0.350479673856,space,0.283479277539,space,0.333771218604,space,0.433853795781,j,1,1.18394774114,SPR,33,A,,f,60.0065847844,001,2016_11_23_1637,
貴族拉攏的青年當上了執行長,貴族當上了執行長？,當上了,青年,執行長,貴族,的,j,拉攏,13,2,54,0,16,16,13,space,0.267167918995,space,0.300400096632,space,0.316724086471,space,0.30048298958,space,0.250393938855,space,0.300375623454,space,0.283800586418,j,1,1.35049901556,SPR,33,A,,f,60.0065847844,001,2016_11_23_1637,
大腦裡的奧秘等著你們去解開,大腦的奧妙等待解開？,你們,等著,去解開,大腦裡,奧秘,f,的,13,3,19,0,17,17,18,space,0.250440911535,space,0.317047763703,space,0.283813217713,space,0.250526567572,space,0.267086604988,space,0.300386675866,space,0.28373861406,f,1,1.35058111904,SPR,33,A,,f,60.0065847844,001,2016_11_23_1637,
迷戀老婆的編輯出版了新書,編輯出版了新書？,出版了,編輯,新書,迷戀,的,f,老婆,12,1,17,0,18,18,0,space,0.450298177777,space,0.383694483433,space,0.21699518591,space,0.283830191038,space,0.23377271858,space,0.267128840904,space,0.28381440189,f,1,0.967303073994,SPR,33,A,,f,60.0065847844,001,2016_11_23_1637,
許多古生物學家著迷於恐龍,古生物學家討厭恐龍？,於,著迷,恐龍,許多,生物學家,j,古,12,3,22,0,19,19,21,space,0.350442569383,space,0.333781876281,space,0.200422517199,space,0.250412491092,space,0.750388412678,space,0.767142656405,space,0.316751717444,j,1,1.73370364113,SPR,33,A,,f,60.0065847844,001,2016_11_23_1637,
砍傷表弟的疑犯發現了秘密,疑犯發現了秘密？,發現了,疑犯,秘密,砍傷,的,f,表弟,12,1,21,0,20,20,4,space,0.31558371635,space,0.535085032374,space,0.433446041425,space,0.334021081653,space,0.483396147785,space,0.535048717371,space,0.633801454824,f,1,1.56794063919,SPR,33,A,,f,60.0065847844,001,2016_11_23_1637,
熟識表姐的院士解釋了理論,表姐解釋了理論？,解釋了,院士,理論,熟識,的,j,表姐,12,1,24,0,21,21,7,space,0.317362362199,space,0.348832472548,space,0.31844707561,space,0.298812499299,space,0.318421023549,space,0.398793631291,space,0.50126668319,j,1,0.933742877125,SPR,33,A,,f,60.0065847844,001,2016_11_23_1637,
哥哥的體育特長是打羽毛球,哥哥不擅長打羽毛球？,是,特長,打羽毛球,哥哥,體育,j,的,12,3,18,0,22,22,17,space,0.300056682987,space,0.317400650849,space,0.250384860119,space,0.251365365286,space,0.483248914097,space,0.318511021615,space,0.450662906747,j,1,1.03298428823,SPR,33,A,,f,60.0065847844,001,2016_11_23_1637,
取笑小郭的廚師偷聽了對話,小郭表揚了廚師？,偷聽了,廚師,對話,取笑,的,j,小郭,12,1,22,0,23,23,5,space,0.233613643068,space,0.334058975568,space,0.265534138482,space,0.284027555201,space,0.217139261717,space,0.282545745053,space,0.335035138734,j,1,2.34943522271,SPR,33,A,,f,60.0065847844,001,2016_11_23_1637,
小明責罵的管理員掄起了拳頭,管理員握起了拳頭？,掄起了,管理員,拳頭,小明,的,f,責罵,13,2,59,0,0,0,10,space,0.367300231941,space,0.350230995013,space,0.300361807982,space,0.36709142066,space,0.23378140261,space,0.383721324964,space,0.633446594031,f,1,1.91710942026,SPR,33,A,,f,60.0065847844,001,2016_11_23_1637,
協助叔叔的警察破了大案件,警察偵破了大案件？,破了,警察,大案件,協助,的,f,叔叔,12,1,31,0,1,1,6,space,0.250416043651,space,0.333422278782,space,0.267158445524,space,0.317060000292,space,0.250475252891,space,0.333810296725,space,0.283685720467,f,1,1.56717249786,SPR,33,A,,f,60.0065847844,001,2016_11_23_1637,
孩子們快樂地享受著陽光,孩子們喜歡陽光？,著,享受,陽光,孩子們,的,f,快樂,11,3,31,0,2,2,22,space,0.283674273349,space,0.267116209579,space,0.267021474807,space,0.28377256071,space,0.267075157841,space,0.283795849682,space,0.250400649267,f,1,1.10055151439,SPR,33,A,,f,60.0065847844,001,2016_11_23_1637,
主播討好的發言人處理了糾紛,發言人擺平了糾紛？,處理了,發言人,糾紛,主播,的,f,討好,13,2,57,0,3,3,8,space,0.333750692749,space,0.383915531304,space,0.317148024711,space,0.317097499472,space,0.283787560387,space,0.367109183455,space,0.517060158163,f,1,1.4005493829,SPR,33,A,,f,60.0065847844,001,2016_11_23_1637,
大姑姑捧紅的明星拍攝了新片,大姑姑拍攝了新片？,拍攝了,明星,新片,大姑姑,的,j,捧紅,13,2,60,0,4,4,11,space,0.267166340083,space,0.217059921328,space,0.250464989949,space,0.633675536461,space,0.433800902189,space,0.550434437988,space,0.45037633396,j,1,2.23403837075,SPR,33,A,,f,60.0065847844,001,2016_11_23_1637,
弟弟花光了所有的零花錢,弟弟存了些零花錢？,的,所有,零花錢,弟弟,光了,j,花,11,3,30,0,5,5,21,space,0.250136970717,space,0.300424175075,space,0.250220653135,space,0.367115893809,space,0.300440753635,space,0.350417701527,space,0.400413596333,j,1,1.01724765415,SPR,33,A,,f,60.0065847844,001,2016_11_23_1637,
熟悉顧客的職工推薦了商品,職工推薦了商品？,推薦了,職工,商品,熟悉,的,f,顧客,12,1,25,0,6,6,0,space,0.26714226167,space,0.267085420812,space,0.283782034181,space,0.283925715281,space,0.266983580892,space,0.683790639247,space,0.667120077938,f,1,1.33381227034,SPR,33,A,,f,60.0065847844,001,2016_11_23_1637,
批評小吳的評論家說了粗話,評論家說了粗話？,說了,評論家,粗話,批評,的,f,小吳,12,1,29,0,7,7,4,space,0.250425517122,space,0.283566117781,space,0.250391175767,space,0.283772955416,space,0.250415648916,space,0.316870530689,space,0.300370491983,f,1,0.983805086289,SPR,33,A,,f,60.0065847844,001,2016_11_23_1637,
他一邊寫作業一邊看著電視,他不能同時做兩件事？,看著,一邊,電視,他,寫作業,j,一邊,12,3,26,0,8,8,17,space,0.233327465045,space,0.267027790454,space,0.21672716536,space,0.250545514544,space,0.23350193497,space,0.283737824589,space,0.233736403607,j,1,1.56702565891,SPR,33,A,,f,60.0065847844,001,2016_11_23_1637,
惹怒上尉的服務員扔了盤子,盤子是上尉扔的？,扔了,服務員,盤子,惹怒,的,j,上尉,12,1,30,0,9,9,5,space,0.21716412963,space,0.250183548691,space,0.250408149092,space,0.28376466615,space,0.283721640764,space,0.250481963274,space,0.300441937841,j,1,2.76725870653,SPR,33,A,,f,60.0065847844,001,2016_11_23_1637,
檢舉犯人的同伴知道了敵情,犯人知道了敵情？,知道了,同伴,敵情,檢舉,的,j,犯人,12,1,26,0,10,10,1,space,0.267079894576,space,0.316979475698,space,0.267085420783,space,0.283711377793,space,0.250409728003,space,0.350350597699,space,0.400387938978,j,1,3.36712615675,SPR,33,A,,f,60.0065847844,001,2016_11_23_1637,
今天爸爸買了一籃新鮮的水果,爸爸今天買了水果？,的,新鮮,各種水果,今天,買了,f,爸爸,13,3,27,0,11,11,18,space,0.283753219002,space,0.250395517767,space,0.300407596456,space,0.200403964962,space,0.300587197853,space,0.317223417806,space,0.600409412204,f,1,1.11711155178,SPR,33,A,,f,60.0065847844,001,2016_11_23_1637,
聖誕節是個令人快樂的節日,聖誕節讓人快樂？,的,快樂,節日,聖誕節,令人,f,是個,12,3,25,0,12,12,16,space,0.233740745578,space,0.217057158239,space,0.283757166268,space,0.233747061255,space,0.233852453704,space,0.283745719178,space,0.23377627114,f,1,0.83377240281,SPR,33,A,,f,60.0065847844,001,2016_11_23_1637,
鄉村的風景迷人且空氣新鮮,鄉村的風景很好？,空氣,且,新鮮,鄉村的,迷人,f,風景,12,3,29,0,13,13,20,space,0.250444069359,space,0.250370649883,space,0.267164761201,space,0.200454490201,space,0.300354308158,space,0.300476279197,space,0.250584987371,f,1,0.967208339192,SPR,33,A,,f,60.0065847844,001,2016_11_23_1637,
親近孩子的阿姨迷失了方向,阿姨迷路了？,迷失了,阿姨,方向,親近,的,f,孩子,12,1,27,0,14,14,2,space,0.233636537305,space,0.233794428641,space,0.300417069957,space,0.267167918995,space,0.317123946268,space,0.300484568492,space,0.350675459107,f,1,1.2170883418,SPR,33,A,,f,60.0065847844,001,2016_11_23_1637,
碰見駕駛員的盜賊撕了名畫,駕駛員毀壞了名畫？,撕了,盜賊,名畫,碰見,的,j,駕駛員,12,1,32,0,15,15,7,space,0.200531856943,space,0.217096236331,space,0.200499883969,space,0.250395517796,space,0.217027553619,space,0.400372149859,space,0.283605195902,f,0,1.45047856861,SPR,33,A,,f,60.0065847844,001,2016_11_23_1637,
家長們準備了豐盛的晚餐,家長沒有準備食物？,的,豐盛,晚餐,家長們,了,j,準備,11,3,32,0,16,16,23,space,0.267189629056,space,0.317170129507,space,0.267024237924,space,0.400434911688,space,0.267028579896,space,0.417149287823,space,0.383731587906,j,1,1.23393534665,SPR,33,A,,f,60.0065847844,001,2016_11_23_1637,
治療師責備的婦女察覺了動靜,治療師察覺了動靜？,察覺了,婦女,動靜,治療師,的,j,責備,13,2,62,0,17,17,13,space,0.233735614136,space,0.300491278875,space,0.316857109923,space,0.283743350796,space,0.267003712041,space,0.417057316139,space,0.617051947833,j,1,1.63383737509,SPR,33,A,,f,60.0065847844,001,2016_11_23_1637,
代理商詆毀的律師吃上了官司,律師碰上了官司？,吃上了,律師,官司,代理商,的,f,詆毀,13,2,61,0,18,18,12,space,0.18366669456,space,0.267072789487,space,0.283520329278,space,0.233772323874,space,0.250367886794,space,0.266836741939,space,0.250629591697,f,1,1.01705581616,SPR,33,A,,f,60.0065847844,001,2016_11_23_1637,
信任市民的委員爭到了選票,委員放棄了選票？,爭到了,委員,選票,信任,的,j,市民,12,1,28,0,19,19,3,space,0.333892400231,space,0.267096473166,space,0.300404043897,space,0.300409175397,space,0.233712325164,space,0.316768690769,space,0.450491594645,j,1,1.40105384568,SPR,33,A,,f,60.0065847844,001,2016_11_23_1637,
業務員撞見的藝人衝進了現場,藝人闖進了現場？,衝進了,藝人,現場,業務員,的,f,撞見,13,2,63,0,20,20,14,space,0.233849295881,space,0.350394017791,space,0.28372203547,space,0.400428201305,space,0.36713049878,space,0.600443358853,space,0.400427017099,f,1,0.983907320944,SPR,33,A,,f,60.0065847844,001,2016_11_23_1637,
空服員侮辱的旅客拿出了凶器,空服員把凶器藏了起來？,拿出了,旅客,凶器,空服員,的,j,侮辱,13,2,58,0,21,21,9,space,0.283726377471,space,0.200476594968,space,0.800489699934,space,0.267133972375,space,0.350199811481,space,0.633700404374,space,0.450396859844,j,1,1.66709284167,SPR,33,A,,f,60.0065847844,001,2016_11_23_1637,
小林支持的研究員分析了案例,小林不懂分析案例？,分析了,研究員,案例,小林,的,j,支持,13,2,64,0,22,22,15,space,0.317150393064,space,0.350384149613,space,0.250437753712,space,0.400457016454,space,0.267492385698,space,0.300348781922,space,0.550427332899,f,0,2.68371919342,SPR,33,A,,f,60.0065847844,001,2016_11_23_1637,
參加國際會議是令人高興的事,參加會議讓人不開心？,的,令人高興,事,參加,是,j,國際會議,13,3,28,0,23,23,19,space,0.383812112472,space,0.317202497186,space,0.283735850971,space,0.483783770964,space,0.267060552898,space,0.283802560036,space,0.317158682359,j,1,1.25067222232,SPR,33,A,,f,60.0065847844,001,2016_11_23_1637,
老闆害怕的藥劑師調配了新藥,藥劑師調配了新藥？,調配了,藥劑師,新藥,老闆,的,f,害怕,13,2,43,0,0,0,10,space,0.367327862943,space,0.400576619111,space,0.25034380838,space,0.300519699318,space,0.250492226216,space,0.333743192925,space,0.367112735985,f,1,1.30055956685,SPR,33,A,,f,60.0065847844,001,2016_11_23_1637,
厭煩醫生的病人嘀咕了幾句,病人喜歡醫生？,嘀咕了,病人,幾句,厭煩,的,j,醫生,12,1,10,0,1,1,1,space,0.283789928741,space,0.350460726913,space,0.450214495359,space,0.433834848838,space,0.367107999249,space,0.434040897031,space,0.417258627567,j,1,3.30065667004,SPR,33,A,,f,60.0065847844,001,2016_11_23_1637,
李老師今天看上去很不舒服,李老師今天不舒服？,很,上去,不舒服,李老師,看,f,今天,12,3,9,0,2,2,16,space,0.317168945301,space,0.300539435702,space,0.300369702542,space,0.333762139868,space,0.300270625739,space,0.333753061132,space,0.283728351118,f,1,0.71725294349,SPR,33,A,,f,60.0065847844,001,2016_11_23_1637,
我們週末約了一起去打籃球,我們週末不去打籃球？,打,一起去,籃球,我們,約了,j,週末,12,3,12,0,3,3,19,space,0.283766639768,space,0.233718246076,space,0.233782981522,space,0.250402622885,space,0.283467830421,space,0.300371281453,space,0.217027553619,j,1,0.867302205588,SPR,33,A,,f,60.0065847844,001,2016_11_23_1637,
舞者羨慕的造型師登上了雜誌,在雜誌上能看到舞者？,登上了,造型師,雜誌,舞者,的,j,羨慕,13,2,48,0,4,4,15,space,0.233885216148,space,0.233742719254,space,0.250470121449,space,0.233728114283,space,0.233736798313,space,0.233803902142,space,0.367026290478,j,1,2.5506294338,SPR,33,A,,f,60.0065847844,001,2016_11_23_1637,
認識張三的司機違反了規定,司機不遵守規定？,違反了,司機,規定,認識,的,f,張三,12,1,9,0,5,5,0,space,0.200546461885,space,0.367138788075,space,0.233502329706,space,0.2337257459,space,0.283749666443,space,0.217235180724,space,0.150536356843,f,1,1.51715252458,SPR,33,A,,f,60.0065847844,001,2016_11_23_1637,
女婿讚賞的工程師籌辦了晚宴,工程師舉辦了一場晚宴？,籌辦了,工程師,晚宴,女婿,的,f,讚賞,13,2,47,0,6,6,14,space,0.267037658661,space,0.250466963596,space,0.183775639569,space,0.217150708835,space,0.233761666197,space,0.217073342123,space,0.200352255575,f,1,2.21748583319,SPR,33,A,,f,60.0065847844,001,2016_11_23_1637,
兇嫌唆使的槍手瞄準了目標,槍手無法找到目標？,瞄準了,槍手,目標,兇嫌,的,j,唆使,12,2,42,0,7,7,9,space,0.200447779789,space,0.200410675345,space,0.217097420536,space,0.233466804115,space,0.334016739624,space,1.43378708672,space,0.333742403425,j,1,0.900544646138,SPR,33,A,,f,60.0065847844,001,2016_11_23_1637,
欣賞小王的村長參加了競選,小王不想去競選？,參加了,村長,競選,欣賞,的,j,小王,12,1,12,0,8,8,3,space,0.283782034152,space,0.333697009715,space,0.267086210253,space,0.250433016976,space,0.317099473119,space,0.300062603928,space,0.367271811498,f,0,4.36718536599,SPR,33,A,,f,60.0065847844,001,2016_11_23_1637,
經常跑步能夠提高身體素質,跑步不利於健康？,身體,提高,素質,經常,能夠,j,跑步,12,3,14,0,9,9,21,space,0.583712798834,space,0.633758034703,space,0.450370018312,space,0.250276704552,space,0.38376356088,space,0.250434990623,space,0.300479831756,j,1,1.10041967515,SPR,33,A,,f,60.0065847844,001,2016_11_23_1637,
邀請王總的政客出席了宴會,政客參加了宴會？,出席了,政客,宴會,邀請,的,f,王總,12,1,13,0,10,10,4,space,0.233775481669,space,0.317382098583,space,0.25023328446,space,0.217056763533,space,0.300627854886,space,0.717140840628,space,0.817296442576,f,1,1.26673766514,SPR,33,A,,f,60.0065847844,001,2016_11_23_1637,
維護隊員的教練得罪了評審,教練得罪了評審？,得罪了,教練,評審,維護,的,f,隊員,12,1,15,0,11,11,6,space,0.433812744013,space,0.317093157471,space,0.350419675146,space,0.316976317874,space,0.483709956781,space,0.600476910768,space,0.516810689878,f,1,2.0005936714,SPR,33,A,,f,60.0065847844,001,2016_11_23_1637,
新發芽的種子需要很多肥料,種子需要肥料？,很多,需要,肥料,新發芽,種子,f,的,12,3,13,0,12,12,20,space,0.300479831756,space,1.6838427434,space,0.316802242683,space,0.233758903079,space,0.367106815043,space,0.317107367708,space,0.283728745853,f,1,0.950273309893,SPR,33,A,,f,60.0065847844,001,2016_11_23_1637,
這個問題同學們一起討論過,同學們沒討論問題？,一起,們,討論過,這個,同學,j,問題,12,3,16,0,13,13,23,space,0.217128209362,space,0.217113209656,space,0.250575513899,space,0.18386603237,space,0.233708377869,space,0.233820480731,space,0.26726068015,j,1,0.850232573925,SPR,33,A,,f,60.0065847844,001,2016_11_23_1637,
鄰居的奶奶一個字也不認識,鄰居的奶奶識字？,也,一個字,不認識,鄰居,奶奶,j,的,12,3,10,0,14,14,17,space,0.167094815348,space,0.45047817388,space,0.21715899813,space,0.267133577639,space,0.233796402288,space,0.283678220614,space,0.267210549675,j,1,1.13389224233,SPR,33,A,,f,60.0065847844,001,2016_11_23_1637,
小金關心的助教迷上了遊戲,助教喜歡打遊戲？,迷上了,助教,遊戲,小金,的,f,關心,12,2,41,0,15,15,8,space,0.183847480133,space,0.267038448132,space,0.200552777533,space,0.217145182658,space,0.317224207276,space,0.250404596532,space,0.267033316661,f,1,1.50072235282,SPR,33,A,,f,60.0065847844,001,2016_11_23_1637,
為了進步就要不斷嚐試新方法,進步需要新方法？,嘗試,不斷,新方法,為了,就要,f,進步,13,3,15,0,16,16,22,space,0.183820638602,space,0.216932818817,space,0.200187653856,space,0.21715623507,space,0.267001343658,space,0.250378149736,space,0.300327466626,f,1,1.26706568437,SPR,33,A,,f,60.0065847844,001,2016_11_23_1637,
在地人尊敬的導遊受到了表揚,在地人不喜歡導遊？,受到了,導遊,表揚,在地人,的,j,尊敬,13,2,44,0,17,17,11,space,0.200498305028,space,0.183429068129,space,0.167101130966,space,0.300363386894,space,0.217094657419,space,0.367088262807,space,0.267200681439,j,1,1.08373648251,SPR,33,A,,f,60.0065847844,001,2016_11_23_1637,
科學家佩服的商人買下了產品,商人買下了產品？,買下了,商人,產品,科學家,的,f,佩服,13,2,45,0,18,18,12,space,0.233741140313,space,0.217064658063,space,0.233578117535,space,0.23370127278,space,0.250836824038,space,0.217018080148,space,0.31674066509,f,1,1.53375992939,SPR,33,A,,f,60.0065847844,001,2016_11_23_1637,
欺瞞群眾的主席失去了權力,群眾得到了權力？,失去了,主席,權力,欺瞞,的,j,群眾,12,1,16,0,19,19,7,space,0.21712149895,space,0.183791823423,space,0.283690457203,space,0.63375566632,space,0.416888372391,space,0.350433490647,space,0.417103894055,f,0,2.083618064,SPR,33,A,,f,60.0065847844,001,2016_11_23_1637,
嫉妒哥哥的富商觸犯了法律,哥哥違反了法律？,觸犯了,富商,法律,嫉妒,的,j,哥哥,12,1,14,0,20,20,5,space,1.78387795316,space,0.500164601719,space,0.333797270665,space,0.300520488789,space,0.517165155907,space,0.600447306148,space,0.583800823253,j,1,2.3170742105,SPR,33,A,,f,60.0065847844,001,2016_11_23_1637,
拜訪總統的老人遭遇了車禍,老人遭遇了車禍？,遭遇了,老人,車禍,拜訪,的,f,總統,12,1,11,0,21,21,2,space,0.250450385036,space,0.417125604145,space,0.250463411066,space,0.350455595413,space,0.333734508895,space,0.300031815103,space,0.334030555125,f,1,0.633802638971,SPR,33,A,,f,60.0065847844,001,2016_11_23_1637,
廣播員攔住的大叔拿錯了行李,廣播員拿錯了行李？,拿錯了,大叔,行李,廣播員,的,j,攔住,13,2,46,0,22,22,13,space,0.200411464786,space,0.283750850649,space,0.233791665552,space,0.283968740667,space,0.283906373603,space,0.250484331627,space,0.283716114558,j,1,2.55047233193,SPR,33,A,,f,60.0065847844,001,2016_11_23_1637,
室友鼓足勇氣參加了圍棋比賽,室友參加了比賽？,圍棋,參加了,比賽,室友,勇氣,f,鼓足,13,3,11,0,23,23,18,space,0.217122288421,space,0.233708772575,space,0.300713510922,space,0.217182287102,space,0.350360465905,space,0.300359044893,space,0.350422438234,f,1,1.06728696908,SPR,33,A,,f,60.0065847844,001,2016_11_23_1637,
